accelerationTimestamp,accelerationX,accelerationY,accelerationZ,angularVelocityTimestamp,angularVelocityX,angularVelocityY,angularVelocityZ,magneticFieldTimestamp,magneticFieldX,magneticFieldY,magneticFieldZ
-0.989449000000604,9.4920969,0.318781644,1.60996556,-0.989449000000604,0.00202217605,0.00174826011,0.00141131412,-0.989449000000604,-19.9566917,12.484808,10.4836149
-0.97635100000025,9.4562521,0.330455393,1.64390814,-0.97635100000025,0.00035515707,0.00165224075,0.000340420986,-0.97635100000025,-19.8403721,12.5832071,10.4824791
-0.965183000001161,9.47248363,0.316607058,1.66832447,-0.965183000001161,-0.000759746414,0.000710484572,0.0011639283,-0.965183000001161,-19.7592697,12.4151583,10.1534719
-0.953350000000682,9.46750736,0.326309294,1.65044534,-0.953350000000682,-0.00215070648,0.00113213062,0.00157934939,-0.953350000000682,-19.5433254,12.3338957,9.81049156
-0.941529000000628,9.47453308,0.305733919,1.65019393,-0.941529000000628,-0.00240276149,0.000347962603,-0.000633118441,-0.941529000000628,-19.9462433,12.5428591,9.92648697
-0.928976000000148,9.49067974,0.312157482,1.67663121,-0.928976000000148,-0.00430716248,-0.000510416925,-0.000574306352,-0.928976000000148,-19.6288986,12.7018957,10.3396454
-0.9166320000013,9.45540047,0.34028545,1.63769794,-0.9166320000013,-0.00510533294,0.000314358622,0.000436707865,-0.9166320000013,-19.6485119,12.4813271,9.7222538
-0.905439000001024,9.45871162,0.331968844,1.63276148,-0.905439000001024,-0.00463234214,0.000148812309,-0.000639342121,-0.905439000001024,-19.5033493,12.6602268,10.0799904
-0.893606000000545,9.47127056,0.332833141,1.62127972,-0.893606000000545,-0.00475525716,-0.0006322423,0.000487118727,-0.893606000000545,-20.0867882,12.2990713,10.0077477
-0.881160000000818,9.45492458,0.316448212,1.60043633,-0.881160000000818,-0.000928247813,0.000580413267,0.000835792162,-0.881160000000818,-20.1333294,12.6136675,9.95376205
-0.869337000000996,9.48984051,0.327061951,1.6348567,-0.869337000000996,0.00210619392,-0.000380189158,-0.000857165898,-0.869337000000996,-19.8449764,12.5776777,9.92652798
-0.856888000001163,9.44681931,0.336709887,1.63674247,-0.856888000001163,0.00335525768,0.00116573833,0.0001440458,-0.856888000001163,-19.2837925,12.4592695,10.0530138
-0.845014000000447,9.46750736,0.297453701,1.66905081,-0.845014000000447,0.00401059631,0.000740048476,0.00149533199,-0.845014000000447,-19.7650661,12.5776806,10.4139357
-0.833237000000736,9.46474838,0.327312917,1.64893675,-0.833237000000736,-5.02630137e-05,0.00138418376,6.7029614e-05,-0.833237000000736,-19.5375423,12.4151592,10.3442755
-0.82141700000011,9.4725275,0.318530798,1.67257094,-0.82141700000011,-0.000414341222,0.00118814316,0.00244753342,-0.82141700000011,-19.361351,12.6705465,10.2166567
-0.808968000000277,9.46040726,0.333372623,1.64462459,-0.808968000000277,0.000827724114,-0.00045720581,0.000915608834,-0.808968000000277,-19.679884,12.6908598,10.0309973
-0.796520000000783,9.48924828,0.345767975,1.65465689,-0.796520000000783,0.00343507482,-0.00016454421,0.000250468496,-0.796520000000783,-19.8436852,12.8783445,9.71123314
-0.785327000000507,9.47380924,0.322963655,1.62559581,-0.785327000000507,0.00299460348,0.00026705768,0.0012821753,-0.785327000000507,-20.0805721,12.8317757,10.2514935
-0.773473000000195,9.46123409,0.304730296,1.60644567,-0.773473000000195,0.00221821759,-0.00124837365,-0.000549100689,-0.773473000000195,-19.486372,12.1017227,10.3442974
-0.760976000000483,9.44777393,0.30405283,1.60855758,-0.760976000000483,-0.00204568496,0.000394174829,0.00104863709,-0.760976000000483,-18.9811077,12.3710442,10.2073507
-0.749225000000479,9.44392109,0.329320282,1.62429702,-0.749225000000479,-0.00682769669,0.00155222137,0.00160735496,-0.749225000000479,-19.2948017,12.4615908,10.0309896
-0.736776000000646,9.45826149,0.313111007,1.67089891,-0.736776000000646,-0.00880351476,-0.000483813696,9.08344518e-05,-0.736776000000646,-20.186594,12.2387056,9.5348568
-0.72558300000037,9.49393749,0.319520473,1.69725263,-0.72558300000037,-0.00155791501,0.00023749657,-0.00102364575,-0.72558300000037,-19.9177933,12.537694,10.3739691
-0.713124000000789,9.46875,0.323837757,1.66898823,-0.713124000000789,0.00425984943,-0.000803076662,1.10177789e-05,-0.713124000000789,-20.0598145,12.4592724,10.5932846
-0.701305000000502,9.4747839,0.309999555,1.66050231,-0.701305000000502,0.00751133729,-0.000240160152,-7.30000902e-05,-0.701305000000502,-19.3987484,12.3919411,10.0541964
-0.689477000000807,9.44467545,0.301719248,1.63410258,-0.689477000000807,0.00445869099,0.000880077481,0.000711166067,-0.689477000000807,-19.6532135,12.4615936,9.81041813
-0.676347000000533,9.44036007,0.327958226,1.59363484,-0.676347000000533,0.000988624059,0.000258613378,0.0012272757,-0.676347000000533,-19.5999031,12.4571705,9.97846222
-0.665211000000454,9.43593407,0.315547645,1.63090396,-0.665211000000454,-0.00407066895,0.00115391333,0.000602253713,-0.665211000000454,-20.1240273,12.6357193,10.0309982
-0.653385000000526,9.4649992,0.334589571,1.62806821,-0.653385000000526,-0.00593150826,0.00172025431,0.000991225243,-0.653385000000526,-20.0509281,12.5312433,10.3675413
-0.64155700000083,9.49234772,0.323800057,1.65773654,-0.64155700000083,-0.00436317408,0.00180427171,-0.000801154179,-0.64155700000083,-19.7544041,12.2758532,10.2514896
-0.629112000000532,9.49830914,0.313349396,1.65393996,-0.629112000000532,0.00106717413,-0.000510416925,-0.00174495368,-0.629112000000532,-19.5446091,12.5474997,10.075038
-0.616039000000455,9.4678297,0.338401169,1.69736636,-0.616039000000455,0.000380495097,0.00236172415,0.0011259208,-0.616039000000455,-19.322567,12.2996235,10.3565063
-0.605467000000317,9.46037865,0.313896179,1.66751266,-0.605467000000317,-0.00189700583,5.14313579e-05,0.00123174652,-0.605467000000317,-19.8574715,12.5578747,10.4590111
-0.593641000000389,9.44743443,0.332833201,1.65094805,-0.593641000000389,-0.00402710261,-0.00147241913,0.000683160033,-0.593641000000389,-19.3731842,12.4151564,10.0309763
-0.581192000000556,9.43299389,0.328128427,1.63602602,-0.581192000000556,-0.00475945836,0.000181329437,-0.00070733414,-0.581192000000556,-19.1785641,12.4151564,10.1743164
-0.569369000000734,9.44618034,0.344375432,1.61273122,-0.569369000000734,-0.00276683876,0.000852072611,-0.000129011925,-0.569369000000734,-19.7276745,12.4151592,10.2514353
-0.5569200000009,9.48829651,0.355541259,1.61070716,-0.5569200000009,0.00112038432,0.000234540552,-0.00177155947,-0.5569200000009,-18.8056374,12.8121758,10.3837776
-0.545094000000063,9.48055458,0.326058328,1.64918816,-0.545094000000063,0.00378654874,0.00116013642,-0.000801154296,-0.545094000000063,-19.3661556,12.5544586,9.94975853
-0.533273000000008,9.45797443,0.30799225,1.64868522,-0.533273000000008,0.00605502911,0.000544005074,0.000123041216,-0.533273000000008,-19.4842606,12.1829844,10.0426035
-0.521449000000757,9.4777956,0.328316599,1.65522242,-0.521449000000757,0.00339446589,0.00228037313,0.000459112693,-0.521449000000757,-19.7500114,11.9740286,10.1006317
-0.50897200000054,9.44729519,0.309773803,1.65107381,-0.50897200000054,-0.0013539386,-0.000856290571,-0.0015055032,-0.50897200000054,-19.072155,12.5144129,9.86558533
-0.496553000000858,9.45111084,0.319308639,1.67925882,-0.496553000000858,0.000322216656,-0.000776473433,0.000649552792,-0.496553000000858,-19.6127396,12.139451,10.3617477
-0.485350000000835,9.48254776,0.315017968,1.66115892,-0.485350000000835,0.00195994088,-0.00079716742,-0.000787151279,-0.485350000000835,-19.9287472,12.059803,10.6924934
-0.473433000000114,9.48306465,0.312759697,1.62756538,-0.473433000000114,0.0014340519,-0.000548223965,-0.00122124318,-0.473433000000114,-19.4671803,12.4267683,10.4603643
-0.460968000000321,9.49711514,0.306198239,1.6405642,-0.460968000000321,0.000668089371,-0.000111332163,6.42288942e-05,-0.460968000000321,-19.4090748,12.7901239,10.4057856
-0.448007000000871,9.46351624,0.317742258,1.61092329,-0.448007000000871,-0.00291353418,0.000334629789,-0.000242369133,-0.448007000000871,-19.8699341,12.4886808,10.3039646
-0.436767000000145,9.46294975,0.31263417,1.62559593,-0.436767000000145,-0.00856406242,0.000533115119,0.000809186371,-0.436767000000145,-19.593832,12.4519186,10.2882061
-0.425606000000698,9.43778896,0.322433919,1.63886571,-0.425606000000698,-0.0121410433,0.00026705768,0.000543130096,-0.425606000000698,-20.174572,12.2313519,9.89618015
-0.413160000000971,9.46183872,0.317401677,1.66468859,-0.413160000000971,-0.00904296711,0.000553809106,0.000995425507,-0.413160000000971,-19.3205643,12.1504822,9.78842449
-0.40133700000024,9.45395851,0.32706207,1.69343925,-0.40133700000024,-0.00038633449,-1.61128119e-05,-7.30000902e-05,-0.40133700000024,-19.1889954,12.7285881,9.91494274
-0.389513000000989,9.4770422,0.331578553,1.6904223,-0.389513000000989,0.00485077454,0.00135617889,-0.00164133194,-0.389513000000989,-20.2091846,12.6937714,9.85680866
-0.376440000000912,9.47055531,0.34339565,1.66051447,-0.376440000000912,0.00613237871,-0.00199653115,-0.00133193308,-0.376440000000912,-19.9589195,12.7932692,9.99947166
-0.365218000000823,9.44599915,0.308661282,1.65293169,-0.365218000000823,0.00710369553,-0.000856291503,-0.00235392735,-0.365218000000823,-19.630619,12.5376921,9.66347313
-0.353417000001173,9.46098423,0.312759697,1.62077677,-0.353417000001173,0.00417863205,0.000319958664,0.000375095056,-0.353417000001173,-19.3121014,12.5428514,9.3926754
-0.341593000000103,9.43940449,0.329571187,1.61826253,-0.341593000000103,-0.000302316155,0.000880077481,-0.000409071217,-0.341593000000103,-19.2064018,12.635725,9.25336075
-0.329144000000269,9.43799973,0.324791163,1.64175832,-0.329144000000269,-0.0030034869,0.00105931517,0.00134129939,-0.329144000000269,-19.2581139,12.59161,9.52378941
-0.316597000000002,9.45111084,0.314302862,1.63936996,-0.316597000000002,-0.00185944466,0.000367567874,0.00038349675,-0.316597000000002,-19.8496742,12.3269329,9.1489172
-0.305498000000625,9.50850391,0.315812379,1.73838878,-0.305498000000625,0.000718345866,6.01252541e-05,0.000513568288,-0.305498000000625,-19.5451279,12.6357231,9.24692822
-0.293048000000454,9.46517467,0.327890098,1.66158342,-0.293048000000454,-0.000954853836,0.00153821707,-0.000441277982,-0.293048000000454,-19.2450867,12.6357193,9.23717976
-0.281225000000632,9.46273994,0.325305611,1.68262792,-0.281225000000632,3.37557867e-05,0.000656031072,0.000627148198,-0.281225000000632,-19.4882603,13.1581202,9.1489048
-0.269401000000471,9.45671749,0.337600559,1.69620514,-0.269401000000471,0.000761909876,-0.000968312845,0.00320369285,-0.269401000000471,-19.5198002,12.8562794,9.19543171
-0.256328000000394,9.46714973,0.340217322,1.62980413,-0.256328000000394,-0.000658391509,-0.000754934736,0.000112372451,-0.256328000000394,-19.6604214,12.7092419,9.00195408
-0.245014000000992,9.43196201,0.310515314,1.60277188,-0.245014000000992,-0.00551919686,-0.000560672954,0.000956995413,-0.245014000000992,-19.0664368,12.7460079,8.15662289
-0.233305000000655,9.461236,0.325305492,1.65597665,-0.233305000000655,-0.00436317502,-0.000296169892,-0.000465082936,-0.233305000000655,-19.2126312,12.9143381,9.18370152
-0.221481000000495,9.50037861,0.316774398,1.63334823,-0.221481000000495,-0.00201067841,0.000992100686,0.000431106426,-0.221481000000495,-19.8866978,12.9027338,9.93804359
-0.208972000001268,9.46970463,0.312395841,1.70218885,-0.208972000001268,0.000721300021,0.000766652636,-0.000866968068,-0.208972000001268,-19.510622,12.4702997,10.3506899
-0.196585000000596,9.4513483,0.347913265,1.66540515,-0.196585000000596,-0.00215210719,0.000873075798,-0.000999996206,-0.196585000000596,-19.6819439,12.558526,9.96479321
-0.185390000000552,9.46348,0.313958436,1.68000197,-0.185390000000552,0.000245355535,0.000680923462,0.000602253946,-0.185390000000552,-19.9081898,12.3048763,10.1411934
-0.173469000000296,9.39474106,0.301468223,1.71908474,-0.173469000000296,0.00303038908,0.000880077481,-0.00220145029,-0.173469000000296,-19.400074,12.1945925,10.3095169
-0.161112000000685,9.47351742,0.354826152,1.66731596,-0.161112000000685,0.00263690576,0.00119234249,-0.000255038613,-0.161112000000685,-20.3110237,12.7239447,10.2956047
-0.149289000000863,9.46926594,0.243004367,1.66854787,-0.149289000000863,-0.00436317502,-0.000100129284,0.000515124062,-0.149289000000863,-20.3331795,12.7518139,10.622818
-0.136841000000459,9.44681931,0.443023741,1.71365404,-0.136841000000459,-0.00680809142,2.16960907e-05,-0.00352753117,-0.136841000000459,-19.7297668,12.3489866,10.1743021
-0.12564200000088,9.50744724,0.197156042,1.60064888,-0.12564200000088,0.0030832896,0.000503553078,0.00021795067,-0.12564200000088,-19.0546665,12.7460041,10.2514858
-0.113192000000709,9.57291889,0.439924926,1.67973638,-0.113192000000709,0.0023176386,0.00207032915,-0.000201827497,-0.113192000000709,-19.6559906,12.4261866,10.3286676
-0.101369000000886,10.3730726,0.0154216317,1.55741739,-0.101369000000886,-0.00296287937,-0.00130438618,0.000403100625,-0.101369000000886,-19.2775745,12.3803301,9.880126
-0.0895450000007258,9.82381153,0.87531805,2.3604753,-0.0895450000007258,-0.00427915761,0.00340061076,-0.000297047547,-0.0895450000007258,-18.7725658,12.8214626,10.3327055
-0.0770970000003217,9.68137836,-0.00273227552,1.29923964,-0.0770970000003217,0.0121617205,-0.0033838246,9.08349175e-05,-0.0770970000003217,-19.4772148,12.40413,9.82149124
-0.0652730000010706,14.6652756,0.740575135,1.68388522,-0.0652730000010706,0.0184336472,-0.00687756576,-0.0037137703,-0.0652730000010706,-19.1742001,12.3222876,10.1354485
-0.0534490000000005,40.9439316,-0.180294529,1.97805452,-0.0534490000000005,0.0170053467,-0.00729765184,-0.000913179247,-0.0534490000000005,-19.4924088,12.3338957,10.0309725
-0.0415930000008302,73.9675293,0.78900224,0.512486815,-0.0415930000008302,0.0291879233,-0.00197652914,-0.00413385965,-0.0415930000008302,-19.0531349,13.1232882,10.21665
-0.0291760000009162,87.4381714,0.303814381,1.83523154,-0.0291760000009162,0.0548637547,-0.0120040495,-0.000973390648,-0.0291760000009162,-20.7622108,12.326931,10.2514954
-0.0167210000008708,91.1157684,0.5288378,1.7865051,-0.0167210000008708,0.0154608209,-0.000962711871,0.0142450277,-0.0167210000008708,-19.1960869,12.6798353,10.3396835
-0.00553400000080728,88.8446045,-0.229000434,0.0897543952,-0.00553400000080728,-0.00794326514,0.00094697997,0.0137868226,-0.00553400000080728,-19.3514175,12.6602297,10.3494844
0.00691999999889958,83.2509155,0.452081859,1.21564019,0.00691999999889958,-0.0346907936,-0.00931688398,0.0104670301,0.00691999999889958,-19.4813652,12.5474968,10.2514658
0.0187509999987014,80.6188583,-2.13569951,1.22477937,0.0187509999987014,-0.077822715,-0.0120586604,0.000319082523,0.0187509999987014,-19.949213,11.8463278,10.6344242
0.0305619999990085,85.1790314,2.08148146,1.62806845,0.0305619999990085,0.0319605097,0.00608918071,-0.00267755101,0.0305619999990085,-19.2573757,12.3338957,10.471981
0.043018999999731,86.7997894,-0.956697822,2.88762927,0.043018999999731,0.0974061415,0.0143355243,-0.00459175603,0.043018999999731,-19.4790001,12.7680607,10.7365913
0.054838999999447,85.2779083,1.29334748,0.0249701627,0.054838999999447,-0.0477723591,0.00614519045,-0.00452594226,0.054838999999447,-19.3307877,12.7634239,10.7504768
0.0666669999991427,85.3469009,0.485140294,1.05104339,0.0666669999991427,-0.127729267,0.00219635572,-0.0135998623,0.0666669999991427,-19.6085987,12.3687248,10.7969446
0.0784869999997682,85.1268539,0.718996048,0.181860402,0.0784869999997682,-0.146801308,0.00132817402,-0.0118634952,0.0784869999997682,-20.3076725,12.7518101,10.9013824
0.0909349999992628,85.1085434,-1.40936673,1.34963799,0.0909349999992628,-0.10937278,0.0288089886,-0.0122541776,0.0909349999992628,-20.8201904,12.1945925,10.5270844
0.103387999999541,84.4866486,0.325029612,2.34399438,0.103387999999541,0.00827729981,0.027345676,-0.0130523462,0.103387999999541,-20.1287041,12.1945925,10.427907
0.114581999999245,84.0382309,0.357130349,1.04438055,0.114581999999245,0.126622111,-0.00251175277,-0.0125823142,0.114581999999245,-20.5841618,12.5989561,10.7782879
0.126406999998835,84.1904297,-0.145416886,1.6258055,0.126406999998835,0.172466248,-0.0319428667,-0.0185849164,0.126406999998835,-21.2174416,12.5312424,10.3675404
0.138855999998668,85.0673141,-0.195813686,2.34542704,0.138855999998668,0.177010208,-0.0333151594,-0.0102055445,0.138855999998668,-20.9390812,12.4151583,9.83250618
0.152031999999053,84.1105728,0.585627139,1.47215962,0.152031999999053,0.0648674741,-0.0330110937,-0.012354264,0.152031999999053,-20.9655533,12.4151564,9.36948109
0.163746999999603,84.5703125,0.232967645,4.74224281,0.163746999999603,-0.0735658184,-0.0234290678,-0.0185289066,0.163746999999603,-20.857296,12.4151564,9.1605835
0.174945999999181,82.7030792,0.0136095406,-0.450855523,0.174945999999181,-0.234977931,-0.076209344,-0.00528054591,0.174945999999181,-20.4125481,12.7092447,8.92843819
0.186774999999216,84.4661713,0.971168935,2.89526057,0.186774999999216,-0.259805202,-0.10954728,-0.00998709723,0.186774999999216,-20.3135586,12.5080252,8.70795441
0.198606999999356,84.867897,-1.2185936,3.53136992,0.198606999999356,-0.119103454,-0.135508791,-0.00615028664,0.198606999999356,-19.8794136,12.2294188,9.49710274
0.210421999999198,83.7799225,-0.744107485,-0.0492010675,0.210421999999198,-0.107312948,-0.0896630585,-0.0137959039,0.210421999999198,-20.1637211,12.4151583,9.03286171
0.223500999999487,84.1659622,0.774054706,3.40757251,0.223500999999487,-0.284907848,0.0204028767,-0.0173206478,0.223500999999487,-19.2049351,12.5201931,8.81284714
0.234781999999541,84.133049,-1.89257371,1.81774187,0.234781999999541,-0.313346297,0.0181223899,-0.00702469237,0.234781999999541,-19.3022594,12.635726,8.78138638
0.246518999999353,84.4368362,0.617374361,1.68111932,0.246518999999353,-0.134898782,0.0126425661,-0.000829159748,0.246518999999353,-19.6626453,12.6357288,9.40418625
0.258406999999352,85.7985611,1.12021446,2.33130932,0.258406999999352,-0.0446076915,-0.0335112065,0.0195311494,0.258406999999352,-19.4583359,12.264245,8.40607548
0.270790999999917,85.0861359,0.151494637,1.13801193,0.270790999999917,-0.406930149,-0.0249343868,0.0179698169,0.270790999999917,-19.1763325,12.5695543,9.1268692
0.283239999999751,85.1867371,1.99053621,1.48435223,0.283239999999751,-0.564195991,-0.0417757407,0.024541406,0.283239999999751,-19.908165,12.5254412,9.14890862
0.2944379999999,86.247673,-2.35024834,5.56193638,0.2944379999999,-0.486519367,-0.0192141738,0.0262914654,0.2944379999999,-19.8554363,12.3416367,8.85492325
0.306887999999162,83.6942825,2.7592864,5.92372179,0.306887999999162,-0.205339283,-0.0942952782,0.0191404633,0.306887999999162,-20.6500187,12.3710432,9.10486698
0.318710999998984,80.3102341,-0.567963004,-1.23920476,0.318710999998984,-0.241293296,-0.226640075,0.00547217438,0.318710999998984,-19.4676132,12.1945925,8.85884666
0.330529999999271,84.4227753,-0.0774181858,8.82064056,0.330529999999271,-0.283554226,-0.327125341,0.00143931992,0.330529999999271,-19.4613705,12.2642441,8.76602936
0.343031999999766,80.1535187,-1.22176778,4.16383505,0.343031999999766,-0.0595936626,-0.13758263,0.00216607284,0.343031999999766,-19.2007561,12.4151583,9.58994675
0.3548069999988,83.6376572,-0.133623764,0.613811493,0.3548069999988,0.0728211552,0.0360555202,-0.0142439986,0.3548069999988,-19.2916451,12.1133347,9.65962315
0.36663099999987,82.78302,1.03791296,-2.04854751,0.36663099999987,-0.0619153529,0.0868302658,0.0027275919,0.36663099999987,-19.241354,12.5312452,9.21857643
0.378454999999121,82.3572235,0.80405736,10.2877169,0.378454999999121,-0.496483326,-0.0838938579,0.00919696037,0.378454999999121,-19.0611897,12.1597662,9.55509853
0.390902999999525,83.842804,-0.262557924,7.81307077,0.390902999999525,-0.481026798,-0.0700309202,0.0133138318,0.390902999999525,-19.8523769,12.0512266,9.36946678
0.403351999999359,83.8544769,1.46492553,-1.8414731,0.403351999999359,-0.385725439,-0.062661171,0.0210294668,0.403351999999359,-19.5860691,12.0732813,9.49069309
0.414549999999508,83.5808334,-1.95613968,-1.98245096,0.414549999999508,-0.321771443,0.0756201148,0.0263210256,0.414549999999508,-18.9844513,11.9740295,9.43074131
0.426375000000007,81.6360779,4.16510534,5.96166277,0.426375000000007,-0.123976476,0.039248202,0.014770139,0.426375000000007,-19.1428394,12.1597662,9.1838007
0.438827999999376,80.479599,0.278547168,4.23286295,0.438827999999376,0.468661129,-0.0878566951,0.00163396075,0.438827999999376,-19.0743732,12.2387047,9.85459995
0.450661999999284,82.1085587,1.62506127,6.41498518,0.450661999999284,1.03465652,-0.0978408083,-0.0173526574,0.450661999999284,-19.6347427,12.3338947,10.1935139
0.463095999999496,84.0635147,-2.54378033,3.94241571,0.463095999999496,1.22237206,-0.113158643,-0.0361726359,0.463095999999496,-19.3163681,11.9519701,10.4720068
0.474918999999318,84.6014404,1.81299913,3.78028345,0.474918999999318,1.51873922,-0.0629174262,-0.0441263206,0.474918999999318,-19.8209915,11.9159832,9.65957737
0.486746999999923,86.1801987,1.35406971,1.00025523,0.486746999999923,1.20078766,-0.0526672676,-0.050819736,0.486746999999923,-19.7654095,11.4632521,9.47393036
0.4985659999993,85.2994843,0.779718339,5.30518866,0.4985659999993,1.17916727,-0.0578763634,-0.0589974672,0.4985659999993,-19.3469601,9.00222778,7.73311949
0.511018999998669,86.569519,-0.204633549,4.74019337,0.511018999998669,1.27239072,0.0391053669,-0.0525084995,0.511018999998669,-19.0348186,8.75375938,8.09048176
0.523463999998967,86.9073105,-1.40507615,-3.85932541,0.523463999998967,1.22878397,0.0179272853,-0.0518433563,0.523463999998967,-19.2031631,11.2682238,8.88431263
0.534661999999116,87.1709747,2.21140146,3.24264812,0.534661999999116,1.24716246,0.0318981931,-0.0415528864,0.534661999999116,-19.4124184,12.488677,8.19343281
0.546486999998706,86.9623184,-1.537009,-3.1849978,0.546486999998706,1.21843135,0.0161433071,-0.0506236963,0.546486999998706,-18.5006142,12.6589422,8.98641968
0.55893499999911,87.3378067,1.33930314,1.63148761,0.55893499999911,1.21478939,0.0246585086,-0.0376093425,0.55893499999911,-18.8500881,12.9665709,8.32202911
0.570762999998806,87.1858826,-1.50915682,-1.6309278,0.570762999998806,1.19896734,0.0214644335,-0.0434261709,0.570762999998806,-19.5994949,12.8214626,8.2088747
0.583207999999104,87.2720261,0.624425232,0.690874338,0.583207999999104,1.18493795,0.0201621577,-0.0358267613,0.583207999999104,-19.7476082,13.3415203,7.82595634
0.594405999999253,87.2755966,-0.280118078,-0.970499098,0.594405999999253,1.16696131,0.0235617664,-0.0335711986,0.594405999999253,-20.1930599,13.5179796,7.99741888
0.606855999999425,87.4658127,-0.0222788621,-0.175455004,0.606855999999425,1.1455617,0.0165437907,-0.0319423415,0.606855999999425,-20.4256229,12.9003973,8.06849003
0.618677999999818,87.6382904,0.212894261,0.0641926825,0.618677999999818,1.1367662,0.0205402374,-0.024550179,0.618677999999818,-19.2808971,12.9259472,8.09278679
0.630506999998943,87.680954,-0.754395127,-0.956600785,0.630506999998943,1.11531377,0.0184117872,-0.0225897655,0.630506999998943,-19.7364349,13.6456976,7.51244211
0.643031999999039,87.961853,0.608215749,0.5437392,0.643031999999039,1.09942734,0.0166236088,-0.0234817546,0.643031999999039,-19.0372562,13.5179882,7.12024498
0.654774999999972,87.9988632,-0.923764884,-0.595551789,0.654774999999972,1.07467723,0.0194480047,-0.0181648284,0.654774999999972,-19.0236111,13.8662453,7.466115
0.666598999999223,88.0909653,0.665048659,-0.148514584,0.666598999999223,1.05515707,0.016703425,-0.0160363782,0.666598999999223,-19.1799965,14.144865,6.58403492
0.678421999999955,88.0344849,-1.21784115,0.189906076,0.678421999999955,1.0325563,0.0235928819,-0.0135158449,0.678421999999955,-19.2100277,13.9010639,6.78141117
0.690875999999662,87.9487534,0.452320248,-0.603962064,0.690875999999662,0.988614917,0.0257227346,-0.0063211224,0.690875999999662,-19.7965775,13.738555,6.84459591
0.703319999999621,88.0760422,-0.910215318,0.0999455154,0.703319999999621,0.950675249,0.0283034779,-0.00397982635,0.703319999999621,-19.8460865,13.7385492,6.43669224
0.714513999999326,88.1972885,0.348654836,-0.57320261,0.714513999999326,0.916809261,0.0311887097,0.00261245715,0.714513999999326,-19.5847988,14.1061707,6.28228283
0.72634299999936,88.1925735,-0.988250971,-0.316467792,0.72634299999936,0.89109832,0.0295861531,0.0059762802,0.72634299999936,-19.22616,13.7617779,6.07337475
0.738790999998855,88.2154846,0.280215561,-0.123862103,0.738790999998855,0.854496062,0.0307778027,0.0102275806,0.738790999998855,-19.2921085,13.7385569,5.99563456
0.75186499999927,88.2927475,-0.576721251,-0.580861211,0.75186499999927,0.827511549,0.031551905,0.0139219612,0.75186499999927,-19.4926834,13.7385607,5.72575235
0.763057999999546,88.3273468,-0.408839077,-0.0126881814,0.763057999999546,0.804651737,0.030390542,0.0170090608,0.763057999999546,-19.0760994,14.3757391,5.46156311
0.774886999998671,88.2849045,-0.328838021,-0.439666986,0.774886999998671,0.778094351,0.0307624005,0.0211554933,0.774886999998671,-19.6290226,14.6208105,5.40031052
0.786710999999741,88.4274368,-0.545129478,-0.159828722,0.786710999999741,0.753281176,0.032442756,0.0289971512,0.786710999999741,-19.1092567,14.4350891,5.58592653
0.798533999998654,88.5227737,-0.134376451,-0.214891344,0.798533999998654,0.730064213,0.0354673937,0.0312096179,0.798533999998654,-20.1392975,14.4815187,5.46989393
0.811035999999149,88.5237122,-0.662784994,-0.452766478,0.811035999999149,0.702178657,0.0359392986,0.0370726585,0.811035999999149,-19.6216431,14.2899628,5.51056433
0.823431999999229,88.5780487,0.170802727,-0.117890783,0.823431999999229,0.678260207,0.0366576463,0.0426332355,0.823431999999229,-19.5010834,14.2458382,5.24600887
0.834629999999379,88.5532608,-0.690912902,-0.342839658,0.834629999999379,0.661809146,0.0379583687,0.0439989939,0.834629999999379,-19.5006638,14.963891,4.78787231
0.846490999999332,88.6294174,0.089191556,-0.276239574,0.846490999999332,0.636132419,0.0379879251,0.0450165384,0.846490999999332,-19.7113438,14.8065386,4.2514019
0.858902999999373,88.8810272,-0.955506027,0.0282887947,0.858902999999373,0.610548913,0.0383071974,0.0476350933,0.858902999999373,-19.6932106,14.6208344,5.02534819
0.870726999999533,89.1239853,-0.207142726,-0.470341086,0.870726999999533,0.575695574,0.042804949,0.0553787313,0.870726999999533,-19.4518318,14.7368984,4.85484695
0.883175999999366,89.4881668,-0.740732729,0.0997066572,0.883175999999366,0.543555856,0.0428035483,0.0589690916,0.883175999999366,-19.116642,14.9957724,4.34187889
0.894373999999516,89.3165817,-0.153780833,-0.547724843,0.894373999999516,0.512315035,0.0468564779,0.0643375143,0.894373999999516,-19.2008076,15.4540586,4.46927834
0.906823999998778,89.0443039,-0.760994196,-0.101170905,0.906823999998778,0.483294189,0.0487632081,0.0700370297,0.906823999998778,-19.1565151,14.9737358,4.56230116
0.918649999998706,88.8991547,-0.263097525,-0.211874202,0.918649999998706,0.455774218,0.0489382446,0.0747028291,0.918649999998706,-19.8433323,15.015523,4.57626057
0.930470999998761,88.9776917,-0.514517486,-0.488443792,0.930470999998761,0.431016922,0.0492743179,0.0779235065,0.930470999998761,-19.1860294,14.5279417,4.06566095
0.943544999999176,88.9120789,-0.521555126,-0.175716579,0.943544999999176,0.401289344,0.0501758382,0.086187914,0.943544999999176,-19.5129395,15.3139982,4.17183208
0.95500599999923,88.8888474,-0.170202017,-0.578510582,0.95500599999923,0.374557018,0.0530940145,0.0918891281,0.95500599999923,-18.7162971,15.4785624,3.88127017
0.966561999998703,89.0399246,-0.074407056,-0.483163923,0.966561999998703,0.340725869,0.0522709563,0.0982557982,0.966561999998703,-18.9699993,15.1083584,3.90325356
0.978389999999308,89.2652588,0.411621392,-0.384101659,0.978389999999308,0.312187821,0.0539233014,0.0947270617,0.978389999999308,-19.3041725,15.2825069,3.91479015
0.99083999999948,89.267189,-0.0370578915,-0.719090402,0.99083999999948,0.287290543,0.0514237732,0.0965894535,0.99083999999948,-19.4748421,15.0398741,3.6363039
1.00328799999897,89.1346512,0.43039006,-0.115263358,1.00328799999897,0.26244089,0.0493219197,0.0958710983,1.00328799999897,-18.8471203,15.503067,3.30551457
1.01448599999912,89.19767,0.124849856,-0.585410893,1.01448599999912,0.239489079,0.0511133745,0.0954365432,1.01448599999912,-19.450201,14.7065859,3.63625288
1.02693499999896,89.1994934,0.499994814,-0.484295279,1.02693499999896,0.213353485,0.0478852168,0.0930242985,1.02693499999896,-19.7589359,15.1170778,4.02216578
1.03876299999956,89.2915955,0.301468283,-0.275485277,1.03876299999956,0.182632402,0.0490222573,0.0905541778,1.03876299999956,-19.6368961,15.3753624,3.76396656
1.05058299999928,89.2479248,0.564179599,-0.976966321,1.05058299999928,0.151209757,0.0466697663,0.0893499255,1.05058299999928,-19.6368961,15.7584457,3.63630772
1.06304799999907,89.22715,0.423715651,-0.277446389,1.06304799999907,0.132472381,0.0436815396,0.0846701339,1.06304799999907,-19.3292484,15.4479065,3.63634443
1.07485499999984,89.2175751,0.512490511,-0.812030256,1.07485499999984,0.107576512,0.041600693,0.0817043036,1.07485499999984,-18.7190132,15.2824879,3.65953732
1.08667799999876,89.1864548,0.444240689,-0.552809179,1.08667799999876,0.0841355473,0.0386320651,0.0779795051,1.08667799999876,-19.2064114,15.224474,3.6826396
1.0985069999997,89.418045,0.500195444,-0.559094727,1.0985069999997,0.0625429824,0.038800098,0.0752909482,1.0985069999997,-19.3070984,15.2476559,3.28817463
1.11103599999933,89.4969788,0.484262079,-0.719568014,1.11103599999933,0.04414168,0.0340236872,0.0716865882,1.11103599999933,-19.132864,15.9000607,3.28353477
1.12339999999949,89.3160629,0.507860959,-0.501492977,1.12339999999949,0.0198773537,0.0308576208,0.0689195991,1.12339999999949,-19.357296,15.1060333,3.72454929
1.1345939999992,89.3539352,0.6834355,-0.664233208,1.1345939999992,-0.00817976147,0.0273161158,0.0651948079,1.1345939999992,-18.8785877,15.3315001,3.58733225
1.14641799999936,89.3866882,0.510984957,-0.556832075,1.14641799999936,-0.0388104655,0.0258333571,0.0613440052,1.14641799999936,-18.8611679,15.6075497,3.3693223
1.15887999999995,89.5374908,0.653983176,-0.456826985,1.15887999999995,-0.0725506097,0.0223970301,0.0574525706,1.15887999999995,-19.4813652,15.2825069,3.95599031
1.1706949999998,89.5926971,0.535323977,-0.736853719,1.1706949999998,-0.0958585292,0.0214924384,0.0544265322,1.1706949999998,-19.4813652,15.5611162,3.52019668
1.18314399999963,89.528923,0.631814539,-0.557385087,1.18314399999963,-0.120999448,0.0183263682,0.0527433753,1.18314399999963,-18.7986355,15.547164,3.19531488
1.19496699999945,89.5011063,0.729785562,-0.781104803,1.19496699999945,-0.141284123,0.0158352423,0.0474250503,1.19496699999945,-18.7301388,15.7584677,3.38091731
1.20678599999974,89.405014,0.647735298,-0.822338998,1.20678599999974,-0.162820697,0.0127265835,0.0446244553,1.20678599999974,-19.2051659,15.8049097,3.19520688
1.21862299999975,89.545784,1.06225228,-0.903046966,1.21862299999975,-0.187325895,0.00964593142,0.039359346,1.21862299999975,-19.0505276,15.6075115,3.40427279
1.23043899999993,89.7018509,0.611603081,-1.00613201,1.23043899999993,-0.212503195,0.00454885326,0.0354665145,1.23043899999993,-19.0813084,15.5842972,3.63637638
1.24351299999944,89.7039261,1.29892755,-0.932547569,1.24351299999944,-0.242440209,-0.00344083644,0.0276808701,1.24351299999944,-19.6303577,15.6815987,3.46833253
1.25470499999938,89.7003632,0.805534899,-0.801177025,1.25470499999938,-0.271072924,-0.00777375326,0.0234535318,1.25470499999938,-19.4793911,15.7971535,3.59951735
1.26653399999941,89.7028351,1.4250797,-0.834156036,1.26653399999941,-0.292516142,-0.0122827049,0.0145180859,1.26653399999941,-19.2074394,15.886137,3.48544073
1.2784189999993,89.5726318,0.78147459,-0.689334095,1.2784189999993,-0.319541842,-0.0181639493,0.00603229087,1.2784189999993,-18.8998814,15.1780176,3.5318439
1.29080799999883,89.6969681,1.23465824,-0.684217334,1.29080799999883,-0.345763773,-0.0217949208,-0.0009201793,1.29080799999883,-19.0142918,15.4920359,3.55910563
1.30325599999924,89.6140137,0.932401896,-0.472352564,1.30325599999924,-0.370134592,-0.0256527383,-0.00451193936,1.30325599999924,-19.3882999,15.3486586,3.81272578
1.31444899999951,89.7292404,1.0349021,-0.534454942,1.31444899999951,-0.387871653,-0.0271367412,-0.0125823142,1.31444899999951,-19.4445171,15.2457666,3.63617802
1.32690299999922,89.6168823,1.06708241,-0.992580175,1.32690299999922,-0.402061284,-0.0287389848,-0.0201560501,1.32690299999922,-19.1966743,15.1391315,3.8678174
1.33872699999938,89.7005692,0.857252061,-0.542500556,1.33872699999938,-0.42341578,-0.0335112065,-0.0266786274,1.33872699999938,-18.8936939,15.3985691,4.29785967
1.35180499999933,89.6185684,0.970655143,-0.637731552,1.35180499999933,-0.439296514,-0.03562098,-0.0317383669,1.35180499999933,-19.0371399,15.5030642,3.8252821
1.36299799999961,89.6370544,0.630463839,-0.972887814,1.36299799999961,-0.456159413,-0.0408534184,-0.0405773483,1.36299799999961,-18.9656792,15.3070107,3.68526411
1.37481799999932,89.6423798,0.921988845,-0.49372384,1.37481799999932,-0.467441201,-0.0415488929,-0.0430901013,1.37481799999932,-19.4010639,15.503026,4.47200966
1.38664599999993,89.6596909,0.552888274,-1.07502282,1.38664599999993,-0.488081515,-0.0471500829,-0.0475990549,1.38664599999993,-19.193346,15.4217949,4.29782915
1.39847099999952,89.6313477,0.598555326,-0.440421253,1.39847099999952,-0.505389214,-0.0540395379,-0.0557207726,1.39847099999952,-19.1945934,15.0503225,4.29782009
1.41091999999935,89.6805267,0.319785267,-0.402129054,1.41091999999935,-0.515055478,-0.0553446263,-0.0594525598,1.41091999999935,-19.1889954,15.1501446,4.29785967
1.42336799999885,89.7448807,-0.0871160552,-0.404995203,1.42336799999885,-0.531683922,-0.0552115887,-0.0594259501,1.42336799999885,-18.7121048,15.5912724,4.84912109
1.4345689999991,89.7814102,0.359514028,-0.608234882,1.4345689999991,-0.55060935,-0.0556934476,-0.0614775456,1.4345689999991,-19.0331326,15.0374117,4.56736469
1.44638999999916,89.7181473,-0.214670271,-0.66142565,1.44638999999916,-0.570278883,-0.0574562699,-0.0598936565,1.44638999999916,-19.5728455,15.3985691,4.5763936
1.45883999999933,89.712944,0.228250384,-0.645522892,1.45883999999933,-0.58720994,-0.0578721613,-0.0596121922,1.45883999999933,-19.1393261,14.9626789,4.41908979
1.47067499999957,89.7148972,-0.0771671459,-1.07577729,1.47067499999957,-0.606966734,-0.0618251935,-0.057625182,1.47067499999957,-19.2511234,15.3869658,5.00577593
1.48311199999898,89.7036362,0.245413214,-1.01813757,1.48311199999898,-0.62411195,-0.0664125606,-0.059692014,1.48311199999898,-19.395565,14.9295502,5.17999458
1.49492999999984,89.6973267,0.0322331525,-0.940258205,1.49492999999984,-0.625758648,-0.0703109875,-0.0589414574,1.49492999999984,-19.1354599,15.0619297,5.46998167
1.50677099999939,89.6315842,0.0525575578,-0.907572448,1.50677099999939,-0.631443858,-0.0773684904,-0.0603137463,1.50677099999939,-19.8662415,15.1547852,5.81819487
1.51858699999957,89.6752396,0.258561343,-0.949058175,1.51858699999957,-0.640629828,-0.07977698,-0.0620221011,1.51858699999957,-19.7107639,15.0271034,5.30750847
1.53104399999938,89.7005386,-0.00821482204,-0.929044545,1.53104399999938,-0.653112054,-0.0857016444,-0.0613681674,1.53104399999938,-19.6888084,15.3376417,5.06956863
1.54347999999936,89.6519241,0.182721287,-0.673707843,1.54347999999936,-0.672959864,-0.0909961611,-0.0638691038,1.54347999999936,-19.5392838,15.0509167,5.44440174
1.55468099999871,89.5372086,-0.208341584,-0.429889381,1.55468099999871,-0.691323757,-0.091817975,-0.0618027374,1.55468099999871,-19.5301914,14.8413801,5.78006363
1.56650699999955,89.4391251,0.46331051,-0.644831419,1.56650699999955,-0.700422347,-0.0962724909,-0.0644306242,1.56650699999955,-19.2559795,14.8413439,5.62093306
1.57903999999962,89.4001923,-0.195098683,0.0808370709,1.57903999999962,-0.714331448,-0.0959714279,-0.0652525946,1.57903999999962,-18.5648937,14.8413429,5.88554096
1.59077499999967,89.5005951,0.231462151,-0.369770169,1.59077499999967,-0.74161917,-0.094984211,-0.0648507029,1.59077499999967,-19.3341866,14.667222,6.41008234
1.6032239999995,89.4388275,0.0570991971,-0.123384461,1.6032239999995,-0.759055555,-0.0945879072,-0.0653590187,1.6032239999995,-19.5929813,14.2679052,6.29336548
1.61441699999978,89.2562027,0.302569538,-0.0339197777,1.61441699999978,-0.781102836,-0.0940351188,-0.0680698305,1.61441699999978,-18.5585003,14.5595388,6.28235722
1.62687599999936,89.4080811,-0.134552106,-0.0775242373,1.62687599999936,-0.802130163,-0.0921934247,-0.0666360781,1.62687599999936,-18.9785938,14.3009748,6.48086023
1.63869499999873,89.1786804,0.0114069972,0.576349318,1.63869499999873,-0.826533139,-0.09061528,-0.0682674199,1.63869499999873,-19.395689,14.3189678,6.58415031
1.6505189999998,89.0446777,0.210385069,0.653788805,1.6505189999998,-0.846921384,-0.0826335996,-0.0674552545,1.6505189999998,-19.1889954,13.7037125,7.02516317
1.6630439999999,88.8138123,0.00608749734,0.393499047,1.6630439999999,-0.870293856,-0.0750859976,-0.0691636205,1.6630439999999,-18.9897976,14.146595,7.13129568
1.67478999999912,89.0371552,-0.00264446158,0.635183215,1.67478999999912,-0.888566256,-0.070367001,-0.074176684,1.67478999999912,-18.4181862,14.1796799,7.01349497
1.68661499999962,88.8522339,-0.406622678,0.320396662,1.68661499999962,-0.897612095,-0.0667822435,-0.0737285838,1.68661499999962,-19.7506237,14.1796656,7.16442585
1.69843899999887,88.7696838,-0.419921309,0.786290765,1.69843899999887,-0.905761778,-0.0578483567,-0.0746527761,1.69843899999887,-19.2215385,14.1796684,7.16441345
1.7108879999987,88.6879578,-1.2348783,0.415473789,1.7108879999987,-0.923345447,-0.0532693714,-0.0691104084,1.7108879999987,-18.4619904,14.5325699,7.69362783
1.72333599999911,88.5482635,-1.114977,0.366030633,1.72333599999911,-0.936648309,-0.0475225598,-0.061714042,1.72333599999911,-19.6962795,13.4297514,8.04643917
1.73453299999983,88.2831116,-1.28657877,0.152652964,1.73453299999983,-0.954069078,-0.0429818779,-0.0529046245,1.73453299999983,-19.3917847,13.8855972,8.04637814
1.74635899999976,88.3943176,-0.588789284,0.33548227,1.74635899999976,-0.963090062,-0.0427531525,-0.0433141477,1.74635899999976,-19.4615192,13.5295916,7.94196939
1.75880799999959,88.4190674,-1.14644206,0.483308733,1.75880799999959,-0.978099763,-0.0375720561,-0.0364120901,1.75880799999959,-19.5789433,13.1540499,8.11255169
1.77063099999941,88.2101288,-0.954878747,0.396830469,1.77063099999941,-0.996669054,-0.0355276167,-0.0297032725,1.77063099999941,-19.7295494,13.2626009,8.08115864
1.78307999999925,88.3818665,-1.32665169,0.560936809,1.78307999999925,-1.01279354,-0.0307078082,-0.0250248797,1.78307999999925,-19.4371357,13.5179949,8.39915371
1.79490199999873,88.0778961,-1.34681296,0.0629354343,1.79490199999873,-1.02517915,-0.0293103103,-0.0152242053,1.79490199999873,-19.1135864,13.3554735,8.92835712
1.80672699999923,88.0166855,-1.59120715,0.105426662,1.80672699999923,-1.03803396,-0.0272378754,-0.00460996013,1.80672699999923,-18.9252014,13.0768566,8.81234646
1.81855099999939,88.0583344,-1.29938924,0.60828048,1.81855099999939,-1.05044055,-0.0296183731,0.00729255844,1.81855099999939,-19.4760914,12.925931,8.70799923
1.83103999999912,87.8324356,-1.13285494,0.508149803,1.83103999999912,-1.07834971,-0.0281004626,0.0177569743,1.83103999999912,-19.7437172,13.0327396,9.09382057
1.84344299999884,87.8050156,-1.1409595,0.74724412,1.84344299999884,-1.09684074,-0.02456191,0.0259781145,1.84344299999884,-19.3351212,12.7460032,9.31433392
1.85464599999887,87.5150299,-1.25161743,1.02766061,1.85464599999887,-1.10858858,-0.019391546,0.033297617,1.85464599999887,-19.0319653,12.4151583,9.14892101
1.86650699999973,87.3745728,-1.49309814,0.641720355,1.86650699999973,-1.12471223,-0.0172117483,0.0426360331,1.86650699999973,-19.1889954,12.6473274,9.26503372
1.8789199999992,87.4808044,-1.13738406,1.08259737,1.8789199999992,-1.13885105,-0.0137600191,0.0523176827,1.8789199999992,-19.5817013,12.5474939,9.36948299
1.89074299999902,87.3080902,-1.0738138,0.844370484,1.89074299999902,-1.14560473,-0.0104623213,0.0608118847,1.89074299999902,-19.5137882,12.5892849,9.99618149
1.90319099999942,87.4977646,-0.55003494,1.16213655,1.90319099999942,-1.1594969,-0.00588475354,0.0687067509,1.90319099999942,-19.7470245,12.360014,10.416893
1.91439399999945,87.0880814,-0.674491704,1.23015726,1.91439399999945,-1.17167354,-0.000915413722,0.0703976974,1.91439399999945,-19.3063526,12.5131817,9.84726906
1.92683999999917,87.1618881,-1.32998872,0.82296139,1.92683999999917,-1.17891896,0.00433180761,0.0763691813,1.92683999999917,-19.2450867,11.7314091,10.4940596
1.93866299999991,86.9299545,-0.108782843,1.18781972,1.93866299999991,-1.19803178,0.0048009064,0.0804440305,1.93866299999991,-19.5520611,11.6954203,10.3675318
1.95173699999941,87.0370941,-1.2337203,1.31315017,1.95173699999941,-1.20300484,0.0127759278,0.0858585164,1.95173699999941,-19.6476574,11.6169243,10.513998
1.96355399999902,86.6524277,-0.710233569,1.21044815,1.96355399999902,-1.21405113,0.0158352423,0.0895739645,1.96355399999902,-19.2088947,11.6954174,10.8433313
1.97480199999973,86.687355,-0.986494422,1.51678407,1.97480199999973,-1.22322929,0.0206647068,0.0954365432,1.97480199999973,-19.0708694,11.2878256,10.8885012
1.98658299999897,86.7801437,-0.229223534,1.10962594,1.98658299999897,-1.23306715,0.0263934769,0.102036595,1.98658299999897,-18.5971966,11.149806,11.2611532
1.998423,86.3638763,-0.428703487,1.08624327,1.998423,-1.24043286,0.0302022826,0.101756535,1.998423,-18.784338,11.1962366,11.0290127
2.01085599999988,86.4021988,-0.591034949,0.92304194,2.01085599999988,-1.25958729,0.0300062411,0.1062207,2.01085599999988,-18.7063522,11.2902689,11.0011606
2.0232989999995,86.2379532,0.704756439,1.3950206,2.0232989999995,-1.2870177,0.0329062566,0.107072063,2.0232989999995,-18.8396015,11.0255928,11.7950077
2.03450599999906,86.1509933,0.659068406,1.29225969,2.03450599999906,-1.30969763,0.0378696807,0.107231706,2.03450599999906,-18.6514149,10.6751308,11.6969872
2.04695199999969,85.9714584,2.22247219,0.882197678,2.04695199999969,-1.33791435,0.0406484902,0.0975472629,2.04695199999969,-18.9810524,10.5624046,11.1775856
2.05877499999951,86.0677872,2.56851387,1.08322608,2.05877499999951,-1.37026811,0.0432810523,0.0782035664,2.05877499999951,-18.5363083,10.6506357,11.4352407
2.07059899999967,85.9250336,2.69071078,0.713125527,2.07059899999967,-1.39222491,0.0447653681,0.0560228713,2.07059899999967,-18.6630898,10.4184513,12.1547737
2.08367199999975,85.7215195,2.75140905,0.838168621,2.08367199999975,-1.40285099,0.0424222052,0.0384751521,2.08367199999975,-18.8188572,10.2830372,12.0155392
2.09486599999946,85.6880188,3.35558796,1.07835114,2.09486599999946,-1.44446981,0.0450827628,0.0126043502,2.09486599999946,-18.7799587,10.319788,12.1257772
2.10669499999949,85.463829,3.38525224,1.13225448,2.10669499999949,-1.46520829,0.0436171219,-0.0130397435,2.10669499999949,-19.089983,10.2095146,12.0735655
2.11851899999874,85.5363464,3.90289664,1.08800316,2.11851899999874,-1.47968733,0.0494423509,-0.0381610617,2.11851899999874,-19.8627949,9.51298523,12.2360334
2.13104399999884,85.4713516,3.48965883,0.393021315,2.13104399999884,-1.49137568,0.052301757,-0.0702810511,2.13104399999884,-19.9487419,9.58090782,12.6550083
2.14342299999953,85.3307114,2.86726928,0.123592198,2.14342299999953,-1.52559042,0.0528870821,-0.0981903598,2.14342299999953,-19.1826782,8.81995201,12.6770506
2.15460999999868,85.223999,2.74985743,-0.657067657,2.15460999999868,-1.53389442,0.0528870821,-0.121517576,2.15460999999868,-19.0546665,8.99640751,12.7873058
2.16650299999947,85.1351471,2.39337277,-1.02700031,2.16650299999947,-1.54043221,0.0443452746,-0.140774786,2.16650299999947,-19.1344128,8.74679184,12.897541
2.17888799999946,85.0518112,1.2906754,-1.36758327,2.17888799999946,-1.55067945,0.0352475494,-0.153264016,2.17888799999946,-18.9037552,7.95978928,12.5447693
2.19071099999928,84.9052811,2.20568585,-2.59037304,2.19071099999928,-1.56241691,0.0160592888,-0.165307969,2.19071099999928,-18.4704685,7.78334999,12.9323988
2.20252999999957,84.8337784,1.61477375,-1.81899536,2.20252999999957,-1.59266305,-0.00466509722,-0.177994639,2.20252999999957,-19.2775745,7.85297155,13.04844
2.214418999999,84.6112213,1.13978589,-2.36006618,2.214418999999,-1.59650016,-0.0221407916,-0.193761975,2.214418999999,-19.7295609,7.79494715,12.8975763
2.22680799999944,84.537178,0.274732918,-1.69577086,2.22680799999944,-1.61155319,-0.0416427255,-0.198626578,2.22680799999944,-19.6693764,7.56274748,13.1842222
2.23863099999926,84.3816223,0.418145239,-1.80516708,2.23863099999926,-1.62545812,-0.0572042018,-0.202163786,2.23863099999926,-19.6975403,7.00557327,13.7099628
2.25045499999942,84.2027206,-0.464082897,-2.11115336,2.25045499999942,-1.63108742,-0.0710391402,-0.201939732,2.25045499999942,-19.9159603,6.61078596,13.849206
2.26352399999905,84.0606308,-0.880929708,-1.32154107,2.26352399999905,-1.63989449,-0.0891363099,-0.197934836,2.26352399999905,-19.1906548,6.0713191,13.9685888
2.27479399999993,84.0986099,-2.09624958,-0.968110561,2.27479399999993,-1.67250967,-0.0998883545,-0.188149899,2.27479399999993,-19.6603451,6.04330063,13.8040848
2.28655099999924,83.7503128,-1.84262717,-0.897767007,2.28655099999924,-1.68404651,-0.114420325,-0.178442746,2.28655099999924,-19.267067,5.48479319,14.1509657
2.29842699999881,83.5766754,-3.81885839,-0.266936779,2.29842699999881,-1.68245053,-0.116156682,-0.157158226,2.29842699999881,-19.6290226,5.69372034,13.8492126
2.31082399999923,83.6334915,-3.65411782,-0.971321881,2.31082399999923,-1.70038939,-0.126860544,-0.125727177,2.31082399999923,-19.4742508,4.87185764,14.0441923
2.32327099999929,83.4873734,-4.68960667,0.75440979,2.32327099999929,-1.7047528,-0.135533988,-0.0976848528,2.32327099999929,-19.3810101,4.78354025,14.1323833
2.33446599999934,83.2701492,-5.9443717,1.11072934,2.33446599999934,-1.7476263,-0.132672399,-0.0613001771,2.33446599999934,-19.3553391,4.30326653,14.3675957
2.34691999999905,83.2568741,-5.27242661,1.12678587,2.34691999999905,-1.78097785,-0.125955969,-0.0146486815,2.34691999999905,-19.4695015,4.12196636,14.6616116
2.35874299999978,83.1270218,-5.82720613,1.07895184,2.35874299999978,-1.79797459,-0.119013309,0.0332540572,2.35874299999978,-19.4659729,3.68542051,14.0813265
2.37056199999915,83.0776062,-5.96997929,0.772462368,2.37056199999915,-1.79147756,-0.118145108,0.0743387341,2.37056199999915,-19.3257599,3.98720455,14.2205887
2.38301899999988,83.0552139,-6.00446844,1.46190047,2.38301899999988,-1.83389652,-0.121645838,0.118459284,2.38301899999988,-19.52561,3.46027637,14.2206001
2.39483899999959,82.7968292,-4.89956284,2.4429431,2.39483899999959,-1.84891725,-0.119153336,0.16432178,2.39483899999959,-19.0265675,2.54783797,14.4759226
2.40666299999884,82.756691,-4.24968529,2.40497732,2.40666299999884,-1.86952972,-0.109463274,0.201233566,2.40666299999884,-19.7352428,2.91931391,14.9865665
2.41848699999991,82.8776245,-5.39663076,2.25537848,2.41848699999991,-1.87255442,-0.0908953473,0.227111101,2.41848699999991,-19.2875252,2.36203766,14.7080307
2.43093099999987,82.6208878,-4.65861797,1.39908111,2.43093099999987,-1.91161144,-0.0891603678,0.259921432,2.43093099999987,-19.191946,2.10378766,14.8269901
2.44339599999967,82.6196976,-4.83739805,1.53069055,2.44339599999967,-1.9261384,-0.0901980028,0.298898667,2.44339599999967,-18.8273144,1.80593431,15.124671
2.45458999999937,82.4133148,-1.69790316,2.29757667,2.45458999999937,-1.93726528,-0.0882705674,0.326757729,2.45458999999937,-18.5279427,2.04860663,14.8821144
2.4664989999992,82.3368988,-1.19601119,1.2609849,2.4664989999992,-1.91741979,-0.0816813931,0.334373772,2.4664989999992,-19.2480392,1.72362375,15.2070713
2.47885599999881,82.217804,0.0504246838,1.63578725,2.47885599999881,-1.9164803,-0.0942952484,0.332528144,2.47885599999881,-18.2820396,1.21059191,14.8159666
2.49067399999967,82.2034073,-0.203378975,5.1586051,2.49067399999967,-1.93623996,-0.0913434327,0.321967185,2.49067399999967,-18.9115429,1.05030274,15.427577
2.50313199999891,82.0928955,1.08281493,5.82650948,2.50313199999891,-1.92975664,-0.058617115,0.315527141,2.50313199999891,-19.0464973,0.427431524,14.9041653
2.5149509999992,82.0144653,1.3548224,4.83250427,2.5149509999992,-1.92332935,-0.0251374301,0.298106074,2.5149509999992,-19.0087318,-0.0756835416,14.9401436
2.52677499999936,81.9479675,2.76548457,3.91630483,2.52677499999936,-1.95531201,-0.00421700254,0.279342175,2.52677499999936,-19.1274548,0.0171803385,14.5803719
2.53859899999952,81.6892776,3.48812842,4.02844191,2.53859899999952,-1.98429835,0.0174315795,0.250019908,2.53859899999952,-18.9835186,0.20288901,15.0445938
2.55166799999915,81.6775894,3.91557384,4.11572218,2.55166799999915,-2.00798965,0.0345165282,0.214857817,2.55166799999915,-19.0994797,-0.451085657,14.8821154
2.56349099999989,81.4446335,4.17765141,2.92517972,2.56349099999989,-2.03644514,0.0548755005,0.175412118,2.56349099999989,-18.6309814,-0.597997367,14.7660637
2.57479799999874,81.4036865,5.1121254,3.21929336,2.57479799999874,-2.05867553,0.0661307722,0.137148261,2.57479799999874,-19.2785664,-0.89214772,14.8086147
2.5865189999995,81.3249435,4.96754265,2.58072519,2.5865189999995,-2.07671785,0.0831054673,0.0985358506,2.5865189999995,-19.4695015,-1.21334684,13.8376179
2.59904399999959,81.0864868,4.74373579,2.92274117,2.59904399999959,-2.09125257,0.0913322121,0.05085437,2.59904399999959,-19.0381947,-1.60169268,14.5734081
2.61079399999926,80.9149551,4.7344389,2.47965145,2.61079399999926,-2.10533953,0.103997894,0.00970106944,2.61079399999926,-18.348587,-2.15380502,14.4410992
2.6232399999999,80.7620621,4.21860123,1.85338449,2.6232399999999,-2.10828018,0.113148831,-0.0256634131,2.6232399999999,-18.7623234,-1.9214164,14.3308563
2.63443399999869,80.6777115,3.67844939,1.83074641,2.63443399999869,-2.11348319,0.120642751,-0.0573388934,2.63443399999869,-18.8110352,-2.1420033,14.0735989
2.64688799999931,80.8059311,3.89226985,0.35958159,2.64688799999931,-2.10947776,0.129644319,-0.0837701038,2.64688799999931,-19.8061066,-2.3184948,14.1764994
2.65871099999913,80.418869,4.0981102,-0.956097841,2.65871099999913,-2.10323906,0.11312782,-0.115317382,2.65871099999913,-18.9183865,-2.90830398,13.9304543
2.67052999999942,80.3962936,2.51632261,0.794839323,2.67052999999942,-2.12144303,0.10422194,-0.140130639,2.67052999999942,-19.0007763,-3.67441249,13.6287146
2.68304399999943,80.1668549,2.12330961,-0.125295192,2.68304399999943,-2.1382916,0.0988616124,-0.158691585,2.68304399999943,-19.6216431,-3.90667152,13.6693258
2.69480299999941,80.0630798,-0.42619428,-0.069315128,2.69480299999941,-2.15740252,0.0928235352,-0.170321047,2.69480299999941,-19.0666084,-3.83685255,12.9556055
2.70663499999955,80.0284576,-0.432718098,0.578360736,2.70663499999955,-2.16177177,0.0886786431,-0.162255317,2.70663499999955,-18.6260948,-4.64947796,13.2341328
2.71845499999927,79.7840424,-0.272883296,-1.30935276,2.71845499999927,-2.12289953,0.0789886042,-0.152313232,2.71845499999927,-19.2332821,-5.41566706,12.7466955
2.73090299999876,79.7058334,-1.28231454,-0.664392471,2.73090299999876,-2.11525106,0.061533913,-0.140147448,2.73090299999876,-19.2772484,-5.38437128,12.8865347
2.7433519999995,79.4686584,-1.28565156,-1.18581414,2.7433519999995,-2.11136651,0.0468209982,-0.128760219,2.7433519999995,-19.3766174,-5.91374254,12.5778255
2.75454599999921,79.4850616,-1.9031682,-1.82931793,2.75454599999921,-2.10901952,0.0287055168,-0.113092467,2.75454599999921,-19.5388336,-5.95278502,11.8808126
2.76637499999924,79.2982712,-1.35308576,-1.40992367,2.76637499999924,-2.10584378,0.00863771886,-0.0975056067,2.76637499999924,-19.4776134,-6.44893312,12.131588
2.77882399999999,79.1070557,-2.4296,-1.8961705,2.77882399999999,-2.10301256,-0.0128820334,-0.0810297281,2.77882399999999,-19.3477955,-7.34722137,12.0155659
2.79064999999991,79.1492386,-2.56778073,-1.78806973,2.79064999999991,-2.08433509,-0.0368158966,-0.0586053878,2.79064999999991,-19.1151619,-7.07569885,11.7718306
2.80309599999873,78.784523,-3.33970475,-1.06925261,2.80309599999873,-2.07832241,-0.0540941581,-0.0354010724,2.80309599999873,-19.3087006,-7.45753384,11.23277
2.81491899999946,78.728447,-3.51048017,-2.27483273,2.81491899999946,-2.08870363,-0.078012608,-0.00522609055,2.81491899999946,-19.1858788,-8.14365387,11.4584894
2.82674299999871,78.4985962,-0.931292474,-1.25127316,2.82674299999871,-2.06271482,-0.103778064,0.013817938,2.82674299999871,-19.6507511,-8.12033272,11.0058937
2.83856199999991,78.1932297,-2.59638548,-1.76845849,2.83856199999991,-2.03526878,-0.122766092,0.0226958171,2.83856199999991,-19.3593121,-8.19003296,11.1219349
2.85101499999928,78.2224579,-1.99290216,-2.03972316,2.85101499999928,-2.02718639,-0.142531276,0.037258897,2.85101499999928,-19.4719715,-8.45018959,10.4278994
2.86345999999958,78.0606003,-4.58543825,-1.7841475,2.86345999999958,-2.02761221,-0.168924063,0.0573461466,2.86345999999958,-19.1353092,-8.18551159,10.5602036
2.87465799999973,77.8310165,-2.10949254,-1.24889863,2.87465799999973,-2.03408051,-0.191943824,0.0812468827,2.87465799999973,-18.5903244,-8.44026279,10.3005266
2.88650299999881,77.8539963,-4.09913397,-0.305153638,2.88650299999881,-2.04823565,-0.211264789,0.0932707414,2.88650299999881,-19.7930679,-8.96788979,10.0542135
2.89893499999926,77.716629,-2.28586149,0.663883626,2.89893499999926,-2.06478024,-0.220805049,0.119071193,2.89893499999926,-18.9113846,-9.69637966,9.86560726
2.91076299999895,77.5185165,-1.96683145,0.650520325,2.91076299999895,-2.08643556,-0.225799918,0.136259854,2.91076299999895,-19.0334034,-9.86186123,8.9980793
2.92320799999925,77.4627533,1.05325675,1.72917986,2.92320799999925,-2.0922904,-0.232458323,0.139504313,2.92320799999925,-19.357296,-9.86176491,9.01667404
2.93440999999893,77.3420868,1.98521268,3.69833183,2.93440999999893,-2.09843612,-0.220677897,0.122603856,2.93440999999893,-18.596777,-10.2048607,9.026474
2.94686399999955,77.2310562,4.47008419,3.82107711,2.94686399999955,-2.12115788,-0.198669165,0.0914279595,2.94686399999955,-18.712101,-9.72942734,9.2151289
2.95867799999996,77.109024,5.23702812,6.15174246,2.95867799999996,-2.20179224,-0.171944484,0.0436162427,2.95867799999996,-19.605484,-9.9778986,8.44102669
2.97051099999953,77.1172943,5.81890774,5.87743568,2.97051099999953,-2.26760578,-0.131503925,-0.0155322701,2.97051099999953,-18.9596081,-10.3958635,8.64991188
2.9836809999988,76.8191147,3.50693536,5.48584414,2.9836809999988,-2.2966485,-0.0831310377,-0.0700251386,2.9836809999988,-18.8088818,-10.1139402,8.2669239
2.99479799999881,76.6121445,2.73555565,5.34325075,2.99479799999881,-2.34338522,-0.0383702293,-0.100469582,2.99479799999881,-19.154047,-10.5971565,7.3481245
3.00659899999937,76.1986847,2.2980237,4.73620844,3.00659899999937,-2.37422466,-0.00791378319,-0.129796416,3.00659899999937,-19.90835,-10.7906151,7.53575516
3.01841799999875,76.3095779,0.227949306,5.04395485,3.01841799999875,-2.39178395,0.0339550748,-0.133213162,3.01841799999875,-19.1921005,-11.4173765,7.04835653
3.03087599999981,75.942894,-1.53737259,2.11517048,3.03087599999981,-2.4002769,0.0525412112,-0.136555672,3.03087599999981,-18.695797,-11.7698278,6.8225832
3.04331999999977,75.6852188,-1.37837839,2.76222992,3.04331999999977,-2.39806843,0.0655513629,-0.122614339,3.04331999999977,-18.6333065,-11.5493755,6.65715694
3.05451399999947,75.5235748,-1.60493803,3.55740714,3.05451399999947,-2.39163041,0.081295982,-0.104223922,3.05451399999947,-18.6884003,-11.8102884,5.9515686
3.06696799999918,75.4284897,-3.82336211,1.59064329,3.06696799999918,-2.38614941,0.093274422,-0.0837967247,3.06696799999918,-18.9465256,-11.9131594,5.85236216
3.07880199999909,75.2399292,-3.32379675,1.64164555,3.07880199999909,-2.38240242,0.0962402523,-0.0489993431,3.07880199999909,-19.1003971,-12.3576202,4.94777155
3.09061499999916,75.030159,-3.38301325,0.677422941,3.09061499999916,-2.38060999,0.0971084312,-0.0228418168,3.09061499999916,-18.6427174,-12.1950989,4.87813568
3.1030639999999,74.8120422,-3.81668806,-0.894410312,3.1030639999999,-2.38974166,0.0772046298,0.0134202559,3.1030639999999,-18.7274151,-12.1338205,4.1544199
3.11488699999882,74.6608124,-3.5837481,-0.28780514,3.11488699999882,-2.38682699,0.0613168627,0.0425800234,3.11488699999882,-18.6957188,-12.1026011,3.52010775
3.12671099999989,74.4756241,-4.23488045,-1.58290565,3.12671099999989,-2.38259816,0.0383239985,0.0691016316,3.12671099999989,-19.4133453,-12.9842882,2.75441623
3.13852999999926,74.4628372,-3.25228548,-1.04862309,3.13852999999926,-2.38251448,0.0130066434,0.0995720848,3.13852999999926,-19.1808853,-13.0307817,2.75438452
3.15230199999951,74.2780228,-3.25948215,-1.47706616,3.15230199999951,-2.41598654,-0.0169164166,0.132410318,3.15230199999951,-18.882967,-12.8493967,2.5137682
3.16342599999916,74.1794281,0.0374467112,-0.99226141,3.16342599999916,-2.41264892,-0.056077756,0.144302219,3.16342599999916,-18.6370659,-12.9498072,2.65624666
3.17462599999908,74.1389008,-0.274820954,0.213163033,3.17462599999908,-2.40803742,-0.0705039203,0.141109556,3.17462599999908,-18.1202259,-12.3613415,2.55839372
3.18651899999986,73.9158325,1.99215484,0.203231737,3.18651899999986,-2.40926027,-0.0812612996,0.130406618,3.18651899999986,-19.3484707,-12.5087147,1.36154866
3.19889899999998,73.7153091,1.90758264,0.695173681,3.19889899999998,-2.42475438,-0.0988714322,0.101617917,3.19889899999998,-18.6355724,-12.5086565,0.758678973
3.21072699999877,73.5397186,0.99074024,2.47562885,3.21072699999877,-2.45527387,-0.106242575,0.0735545754,3.21072699999877,-18.9170017,-12.5084305,0.0967124403
3.22317599999951,73.458107,0.90355891,3.37298369,3.22317599999951,-2.48746395,-0.0949869975,0.0579846837,3.22317599999951,-19.5781536,-12.1996822,0.0421397202
3.23436999999922,73.0961609,0.719456196,4.23681879,3.23436999999922,-2.49657464,-0.078722097,0.0452405885,3.23436999999922,-19.2513256,-12.2634516,0.108256646
3.24682399999892,73.2228241,1.5142684,3.99997997,3.24682399999892,-2.51061034,-0.0576327145,0.030075375,3.24682399999892,-19.3035851,-12.2880011,-1.21479654
3.25864599999932,73.0366135,0.959877551,3.98243046,3.25864599999932,-2.55329442,-0.0412128195,0.0157223418,3.25864599999932,-19.550848,-12.4506083,-1.13361835
3.27047099999891,72.7044067,2.42022133,3.4209938,3.27047099999891,-2.5570755,-0.0119746439,-0.00603826204,3.27047099999891,-19.0351448,-12.4968233,-1.57447493
3.28354899999886,72.5431747,1.66761029,2.77585626,3.28354899999886,-2.57063556,0.00575710926,-0.02616385,3.28354899999886,-19.5062065,-12.1303663,-1.78175437
3.29480199999944,72.5998077,0.833345056,0.741564751,3.29480199999944,-2.58664966,0.00656372355,-0.0490911528,3.29480199999944,-19.5013294,-11.871356,-2.5010643
3.30656199999885,72.3962631,-2.11738229,-0.21162273,3.30656199999885,-2.54055166,0.0025044214,-0.0504276492,3.30656199999885,-19.759407,-11.881813,-2.71199942
3.31838999999945,72.2452087,-2.84629941,0.587663531,3.31838999999945,-2.49529433,-0.0147472285,-0.0300393384,3.31838999999945,-19.4356308,-11.4288588,-2.78147316
3.33083999999963,71.9830627,-3.25007725,1.34844375,3.33083999999963,-2.46876001,-0.0252536479,-0.011934909,3.33083999999963,-19.0639515,-11.8468523,-3.68444896
3.34328399999958,71.9709091,-4.3868742,0.878376007,3.34328399999958,-2.48272777,-0.0268765893,0.0201780833,3.34328399999958,-19.1830616,-11.8467426,-4.08127117
3.35448199999973,71.5679245,-2.76872444,1.63727319,3.35448199999973,-2.48738098,-0.0332560316,0.0548481755,3.35448199999973,-20.2113037,-11.5896606,-4.51022673
3.36693099999957,71.3535156,-3.63314152,0.699950814,3.36693099999957,-2.48424459,-0.0371729806,0.0788700953,3.36693099999957,-19.3904629,-10.964448,-4.79786777
3.37876299999971,71.3253555,-2.71833158,2.01828289,3.37876299999971,-2.48633242,-0.0441254452,0.106993653,3.37876299999971,-19.1889954,-11.254797,-5.14905643
3.39058299999942,71.2708969,-2.22251701,1.4110868,3.39058299999942,-2.49929905,-0.0397565216,0.117803954,3.39058299999942,-19.5206757,-10.9995089,-5.27680683
3.40367699999933,70.8545837,-1.45642817,1.10295713,3.40367699999933,-2.50837803,-0.0496586189,0.132456362,3.40367699999933,-19.1026974,-10.6809168,-5.68779516
3.41484999999921,71.0490723,-0.860157132,2.33499718,3.41484999999921,-2.49861455,-0.0492785349,0.130851597,3.41484999999921,-18.9721012,-10.7195282,-6.16391754
3.42667399999937,70.6456146,-1.51793897,0.899432898,3.42667399999937,-2.50204372,-0.0572042093,0.138024211,3.42667399999937,-19.4782486,-10.4074936,-6.8319788
3.43850699999984,70.5163956,-0.991011024,1.73115337,3.43850699999984,-2.50386429,-0.062301293,0.142813236,3.43850699999984,-19.1102047,-9.80364609,-6.69252491
3.45105199999944,70.2529526,-0.222511485,1.37519574,3.45105199999944,-2.51598477,-0.0640712678,0.137615323,3.45105199999944,-18.9527721,-9.68514919,-7.47695875
3.46339599999919,70.0424728,1.29472756,0.819139779,3.46339599999919,-2.53455544,-0.0752190202,0.129633665,3.46339599999919,-18.9621944,-9.86173153,-7.82989454
3.47459399999934,70.1032639,1.37127161,2.11923075,3.47459399999934,-2.54895806,-0.0791950971,0.111459047,3.47459399999934,-19.0967884,-8.78347397,-7.8789525
3.4864179999995,69.9591064,2.36476851,1.84152985,3.4864179999995,-2.56276059,-0.072131373,0.082628496,3.4864179999995,-18.5743923,-8.97959232,-8.38708591
3.49887599999875,69.7442703,2.13594317,1.29231286,3.49887599999875,-2.57560825,-0.0759107769,0.0607516691,3.49887599999875,-19.4402905,-8.97949696,-8.81116581
3.51069499999994,69.6025467,2.47893572,2.05147123,3.51069499999994,-2.59429502,-0.0771724284,0.0303134248,3.51069499999994,-19.4075394,-8.97968006,-9.3504467
3.52314399999977,69.2968521,1.07494855,0.808630109,3.52314399999977,-2.6056459,-0.0762566477,0.00237891823,3.52314399999977,-19.41576,-7.92083931,-9.59402275
3.53496299999915,69.2678223,1.35883713,2.08692241,3.53496299999915,-2.61703587,-0.0780126154,-0.0174646787,3.53496299999915,-19.909584,-7.99293661,-9.22278786
3.54678599999988,68.9378662,1.52343965,2.1975503,3.54678599999988,-2.62784648,-0.0718233138,-0.0332040116,3.54678599999988,-19.378006,-7.36606789,-9.66380692
3.55861099999947,68.7574539,0.620887101,2.00621438,3.55861099999947,-2.6342876,-0.0630574599,-0.0464228056,3.55861099999947,-19.7562847,-7.11060381,-9.91903305
3.57043899999917,68.7830429,0.997013271,2.54401684,3.57043899999917,-2.64249349,-0.0554958507,-0.0605938062,3.57043899999917,-19.7650719,-6.85532141,-10.0352354
3.58351299999867,68.3571167,-0.971511066,2.20965457,3.58351299999867,-2.63337398,-0.0462885648,-0.0744847432,3.58351299999867,-20.1547184,-6.93146801,-10.4130697
3.59470499999952,68.2397232,-0.370434701,2.1699214,3.59470499999952,-2.63152409,-0.0468840227,-0.0662665591,3.59470499999952,-19.1791134,-6.44291067,-10.9168425
3.60652999999911,68.0842361,-0.974199355,2.57946777,3.60652999999911,-2.63336372,-0.0251374301,-0.0667271018,3.60652999999911,-19.4547367,-5.96127367,-11.0562801
3.61842699999943,68.0521317,-2.67065668,2.30591536,3.61842699999943,-2.65106297,-0.0283581074,-0.0491673909,3.61842699999943,-19.7703953,-5.79881859,-11.3581181
3.63080799999898,67.6747131,-2.21291971,2.39988613,3.63080799999898,-2.64582038,-0.0117379948,-0.032767117,3.63080799999898,-19.8460865,-5.16389227,-11.214901
3.64325599999938,67.4813995,-2.56046629,2.48444128,3.64325599999938,-2.64659214,-0.00772054493,-0.0156064881,3.64325599999938,-20.2388878,-4.7999649,-11.8874426
3.65444899999875,67.2809296,-3.1482656,3.27821088,3.65444899999875,-2.64231467,-0.00919272192,0.01443718,3.65444899999875,-19.4793911,-4.31101847,-11.9462099
3.66689899999892,67.2325439,-2.31160593,3.85618901,3.66689899999892,-2.63038921,0.0138034113,0.0331616327,3.66689899999892,-19.2772484,-3.89555907,-11.8101234
3.67872299999999,67.0115662,-1.32573569,2.64207292,3.67872299999999,-2.62246895,0.021016337,0.0494974926,3.67872299999999,-19.0679073,-3.34945774,-12.1241989
3.69055099999878,66.8524857,-1.41054618,1.97981453,3.69055099999878,-2.62207699,0.0264214817,0.0603077747,3.69055099999878,-19.2008076,-3.24498034,-12.321497
3.70305199999984,66.5646133,-2.03342509,2.55729198,3.70305199999984,-2.62956452,0.0351145193,0.0670306012,3.70305199999984,-19.1907673,-2.28542519,-12.4495497
3.71481799999947,66.3438797,-3.1564343,0.997992337,3.71481799999947,-2.64899087,0.024377048,0.0902181119,3.71481799999947,-19.3070984,-1.84021676,-12.286459
3.72664599999916,66.2036209,-0.255068123,0.459687263,3.72664599999916,-2.64859843,0.0129786376,0.0989279449,3.72664599999916,-19.8533554,-2.20008039,-12.7855082
3.73847099999966,66.0726242,-0.425190598,0.175323308,3.73847099999966,-2.64327741,0.00578111364,0.100888357,3.73847099999966,-19.5876141,-1.5732156,-13.1104574
3.75216999999884,65.8610992,-0.18903102,-0.548569322,3.75216999999884,-2.64653635,-0.0267121289,0.0950414836,3.75216999999884,-19.401619,-0.939034998,-13.062088
3.76335799999924,65.6403961,0.104985453,0.208385974,3.76335799999924,-2.64470911,-0.0533285066,0.0885486379,3.76335799999924,-18.982584,-0.573686957,-13.1467819
3.77456099999927,65.5426636,1.48410141,0.71157521,3.77456099999927,-2.65541053,-0.0470022708,0.0794731677,3.77456099999927,-19.481369,-0.181570038,-13.1467848
3.7863899999993,65.5007935,2.28246665,-0.536214888,3.7863899999993,-2.68993568,-0.0851261243,0.0550146624,3.7863899999993,-19.683691,0.667188048,-12.8668756
3.79883999999947,65.2609558,2.38528037,1.33745646,3.79883999999947,-2.69900465,-0.0962640867,0.0241955351,3.79883999999947,-19.8762417,0.824541807,-13.3205166
3.81065899999976,65.0704651,2.43427205,1.98182607,3.81065899999976,-2.71620488,-0.0961324573,0.00297964504,3.81065899999976,-19.965517,1.70035243,-13.2847052
3.82311199999913,64.8831406,1.48351836,1.96540761,3.82311199999913,-2.74202609,-0.0904108435,-0.0252909344,3.82311199999913,-19.3691463,2.07064486,-12.9899778
3.83492999999999,64.7151566,1.91838491,2.75948977,3.83492999999999,-2.77638936,-0.0888229012,-0.0547685735,3.83492999999999,-19.8178806,2.50134826,-13.51682
3.84675899999911,64.4052734,1.47827435,2.20358443,3.84675899999911,-2.79350114,-0.0725514665,-0.0740926564,3.84675899999911,-19.6563587,3.05864859,-13.5397758
3.85857899999883,64.4436722,0.799289942,3.02323604,3.85857899999883,-2.80515194,-0.0586885288,-0.0922684968,3.85857899999883,-19.9880562,3.05860782,-12.9015913
3.87105199999951,64.2473984,0.571983218,2.959764,3.87105199999951,-2.80548072,-0.0482409075,-0.0940930918,3.87105199999951,-19.3410892,3.8131144,-13.0671587
3.88347599999997,64.2094955,-2.23556495,2.33802271,3.88347599999997,-2.8089664,-0.0404188633,-0.0918582082,3.88347599999997,-19.7398338,4.09981298,-12.3175402
3.89467299999978,64.1669922,-0.716869056,2.41249251,3.89467299999978,-2.79845977,-0.0261612032,-0.0850087404,3.89467299999978,-19.670063,4.59741354,-12.644269
3.90650699999878,64.0128326,-2.37582827,2.17542505,3.90650699999878,-2.80207133,-0.0144391637,-0.0815982521,3.90650699999878,-19.3601665,5.10168934,-13.1222239
3.91905999999926,63.8726883,-2.00410557,1.28443027,3.91905999999926,-2.7935617,-0.00694897957,-0.0600378774,3.91905999999926,-19.3525581,5.48948097,-12.7250624
3.93078299999888,63.6063652,-3.18002105,1.33892739,3.93078299999888,-2.7907002,-0.0210205596,-0.0317196995,3.93078299999888,-19.2480469,5.75181293,-12.4605436
3.9432199999992,63.6595726,-2.63698363,0.663883626,3.9432199999992,-2.78132296,-0.0226729047,-0.00890186802,3.9432199999992,-18.858778,6.25043297,-12.2178574
3.95441699999992,63.6542282,-2.84367895,1.02076042,3.95441699999992,-2.77084947,-0.045139879,0.0185167119,3.95441699999992,-19.8086853,6.64369965,-12.0809946
3.9668759999995,63.5098801,-2.09111166,1.01786757,3.9668759999995,-2.76472092,-0.0454473272,0.0318579525,3.9668759999995,-19.0639515,7.12162638,-12.041605
3.97869099999934,63.5880356,-2.04938364,0.649514556,3.97869099999934,-2.75731802,-0.0516870394,0.0435602292,3.97869099999934,-19.0738201,7.40027428,-11.6595545
3.99051899999995,63.5438728,-1.56736994,1.40153265,3.99051899999995,-2.75969768,-0.0620212331,0.0553227179,3.99051899999995,-19.8603058,7.73686647,-11.5786448
4.00305599999865,63.6457481,-0.85419786,1.35895348,4.00305599999865,-2.75056648,-0.0700841397,0.0661526099,4.00305599999865,-19.4122238,8.19136429,-11.5454273
4.01480599999923,63.6369705,-1.11973202,1.90086639,4.01480599999923,-2.75516129,-0.0738677382,0.0641165823,4.01480599999923,-19.162384,9.25763702,-11.2185478
4.02661499999977,63.6329575,-0.356940836,2.82234621,4.02661499999977,-2.75630951,-0.0735316724,0.061848104,4.02661499999977,-19.8709183,9.42015648,-11.0212622
4.03843899999902,63.5576744,-0.938067198,3.50044441,4.03843899999902,-2.75969815,-0.0637295917,0.0615120307,4.03843899999902,-19.6792755,9.76838875,-10.9982939
4.05088799999885,63.7160721,-0.113575362,4.08907318,4.05088799999885,-2.77390003,-0.0554776415,0.0592351556,4.05088799999885,-19.4718742,9.7683897,-10.3878326
4.06333199999881,63.7341881,-0.15195331,3.56693482,4.06333199999881,-2.7771728,-0.0234178659,0.0443892106,4.06333199999881,-19.3011951,10.4300842,-10.0790854
4.07453299999997,63.8581734,-0.306868702,4.35836887,4.07453299999997,-2.78512764,-0.00478801131,0.0453292727,4.07453299999997,-19.933012,10.7241716,-10.0349283
4.08698399999867,63.7942581,-0.285918474,3.32401824,4.08698399999867,-2.79763198,0.00611438416,0.0348643959,4.08698399999867,-19.8961334,11.2020512,-9.5940733
4.0988069999994,63.7636871,0.592031419,2.60737586,4.0988069999994,-2.80772805,0.0223886278,0.0329179838,4.0988069999994,-19.4770088,11.5445051,-9.44322205
4.11062699999911,63.8633003,0.955361068,2.57921672,4.11062699999911,-2.80834436,0.025441274,0.0231439117,4.11062699999911,-20.650589,11.9392033,-9.18778515
4.12307999999939,63.963028,0.604878485,2.07313204,4.12307999999939,-2.81133437,0.0301126633,0.0114248339,4.12307999999939,-19.4790001,12.1945925,-8.49159813
4.13490199999887,63.9174881,1.32897794,1.93883193,4.13490199999887,-2.8077004,0.0223886259,-0.0057301973,4.13490199999887,-19.3705063,12.2758532,-8.24780273
4.14672699999937,64.131279,-0.240263939,1.64868534,4.14672699999937,-2.80450773,0.0230047591,-0.0209934246,4.14672699999937,-19.7851391,12.5312433,-7.830019
4.15855099999953,64.0991592,0.369968921,1.21497369,4.15855099999953,-2.80377936,0.0207362771,-0.023513956,4.15855099999953,-19.7271194,12.6357174,-7.52806664
4.17105599999923,63.9732742,-0.969093204,0.69135201,4.17105599999923,-2.79547668,0.0168364532,-0.035347864,4.17105599999923,-19.6792831,12.8452549,-6.99200821
4.18344299999899,63.813797,-0.774104774,0.331157744,4.18344299999899,-2.78177524,0.00326758251,-0.0249982737,4.18344299999899,-19.3469715,13.2422819,-6.50714874
4.19464599999901,63.9823799,-1.65764463,-0.138220072,4.19464599999901,-2.76115251,-0.0191550497,-0.0177851915,4.19464599999901,-19.4227409,13.1626225,-6.33540344
4.20650299999943,63.9767151,-1.59722936,0.0865695849,4.20650299999943,-2.74057007,-0.0279660244,-0.0104631986,4.20650299999943,-19.2099934,13.6456766,-6.06598473
4.21891999999934,64.0464554,-1.62700069,0.104483768,4.21891999999934,-2.7236948,-0.0455537513,-0.00291560171,4.21891999999934,-19.2767086,14.1134996,-5.60288382
4.23073899999963,63.8688126,-2.06067514,0.488852739,4.23073899999963,-2.70091367,-0.0632814988,0.0102891922,4.23073899999963,-18.7466888,14.1796656,-5.38117504
4.24318699999912,63.5859222,-1.65822732,1.00090897,4.24318699999912,-2.67769408,-0.0709887296,0.0219340585,4.24318699999912,-19.6186829,14.1796761,-4.7981019
4.25438999999915,62.8037643,-2.22099781,1.46662414,4.25438999999915,-2.65718389,-0.0825651512,0.0302823111,4.25438999999915,-19.1889896,14.3512144,-4.13034964
4.26683999999932,61.4133911,-1.13476205,2.06095004,4.26683999999932,-2.64049888,-0.0724786445,0.0394139513,4.26683999999932,-19.1759548,14.4994621,-3.86068034
4.2786589999987,59.7858734,-1.64565623,2.4494803,4.2786589999987,-2.61622381,-0.0627774,0.0424399972,4.2786589999987,-18.9760456,14.8877811,-3.53580475
4.2904869999993,57.1125946,-1.13328147,2.87263203,4.2904869999993,-2.60062432,-0.0653819442,0.0537543856,4.2904869999993,-19.9332085,14.8413916,-2.96745586
4.30355599999984,53.8193665,-0.850281775,3.28700781,4.30355599999984,-2.57666588,-0.0509508848,0.0527155027,4.30355599999984,-19.8787727,14.5892954,-2.00238991
4.31480999999894,50.2595634,-0.761630058,3.27369976,4.31480999999894,-2.56288171,-0.0375129282,0.0575974286,4.31480999999894,-19.7188358,15.0619183,-2.12129688
4.32657899999958,46.790081,-0.222197831,3.39006853,4.32657899999958,-2.54144812,-0.0148312487,0.0540344417,4.32657899999958,-19.5501614,14.9342375,-1.74870491
4.33843499999875,42.9613113,-0.453544319,3.19998932,4.33843499999875,-2.52433634,3.98997217e-05,0.0461367741,4.33843499999875,-19.2008076,14.6788549,-1.16848111
4.35210599999937,38.5046349,0.219669014,2.63038182,4.35210599999937,-2.50192285,0.0100762043,0.045675952,4.35210599999937,-20.0235786,15.1822634,-1.15483499
4.36329699999897,35.0530014,-0.0729991272,2.63011646,4.36329699999897,-2.48460221,0.0137176821,0.0376136377,4.36329699999897,-19.4694958,15.2089615,-0.920765758
4.37449799999922,32.2251091,0.48691082,1.74316585,4.37449799999922,-2.47407818,0.0197482929,0.0437920541,4.37449799999922,-19.7864552,15.5030584,-0.185799524
4.38695199999984,29.9768677,0.304291219,1.38522756,4.38695199999984,-2.45707989,0.0107171591,0.0305542834,4.38695199999984,-19.4742508,15.5030565,0.28461507
4.39877099999921,28.1064587,0.47660917,1.17851686,4.39877099999921,-2.43673372,0.00676132133,0.0275408477,4.39877099999921,-19.4601135,15.1547709,0.456512988
4.41059899999982,26.5994453,0.353910178,0.752599597,4.41059899999982,-2.41626167,-0.0060933996,0.0212955233,4.41059899999982,-19.2326565,15.2940912,1.2456069
4.42304299999978,25.3000031,0.393442392,0.586733282,4.42304299999978,-2.40527892,-0.0113123022,0.0123028178,4.42304299999978,-19.4695015,15.4368782,1.87229991
4.43487899999946,24.6806755,0.697667956,0.774725199,4.43487899999946,-2.38873148,-0.0142991338,0.0125576733,4.43487899999946,-19.3422222,15.3869724,2.08115101
4.44669099999919,23.9289246,0.347637266,0.554978073,4.44669099999919,-2.382514,-0.0318028331,0.000487118727,4.44669099999919,-19.3705101,15.085146,2.73107362
4.45851499999935,23.7337112,0.0809113234,1.13275731,4.45851499999935,-2.3699677,-0.0379081294,-0.00942697935,4.45851499999935,-18.8051147,15.3637428,3.14891052
4.47105999999894,23.59445,-0.233953342,1.32073653,4.47105999999894,-2.36137938,-0.055557467,-0.00618809368,4.47105999999894,-18.9897919,15.1832504,3.40472794
4.48343099999965,23.6166191,-0.273523122,1.52615237,4.48343099999965,-2.34618759,-0.0443298817,-0.00496423477,4.48343099999965,-19.383173,15.6464386,3.49292374
4.49460999999883,23.3356857,-0.39427194,1.98202133,4.49460999999883,-2.33457589,-0.0419767648,0.00101611903,4.49460999999883,-19.6216431,15.3927889,3.52600265
4.506531,23.5964565,-0.947853029,2.18799639,4.506531,-2.3176527,-0.0413248539,-0.00214543822,4.506531,-19.3262577,15.2824917,4.25140429
4.51888399999916,23.2023296,-1.04155838,2.21381783,4.51888399999916,-2.31298423,-0.0400729924,0.00389543921,4.51888399999916,-19.5817013,15.1060305,4.20965624
4.53070699999898,22.5935364,-1.11747372,2.35670352,4.53070699999898,-2.29838467,-0.021272609,0.0189990364,4.53070699999898,-19.2214184,14.4350367,5.24959183
4.54315499999939,21.6726933,-0.580308199,2.48921847,4.54315499999939,-2.28850698,-0.0281536672,0.0189276226,4.54315499999939,-19.3677311,14.3891926,5.54373693
4.55435399999897,20.1865215,-0.745473623,2.36711001,4.55435399999897,-2.2751863,-0.0119124074,0.032676816,4.55435399999897,-19.2008076,14.4002447,5.62081957
4.56680399999914,18.4465637,-0.402959228,2.28881836,4.56680399999914,-2.26557279,-0.00742788054,0.0329487883,4.56680399999914,-19.0107784,14.4112635,6.12802887
4.5786309999994,16.2234783,-0.121077798,2.02004313,4.5786309999994,-2.25802803,0.00160823204,0.0347943753,4.5786309999994,-19.6271648,14.179677,6.65372944
4.59045099999912,14.1099958,-0.0849456117,2.13393903,4.59045099999912,-2.25410724,0.0037086755,0.0371468775,4.59045099999912,-19.7194958,14.1796818,6.8277936
4.6035239999992,11.4397354,0.211950317,1.56724703,4.6035239999992,-2.25772786,-0.0014644172,0.0367267877,4.6035239999992,-19.1591396,13.9276075,7.38488388
4.61481399999957,8.61831665,0.728461266,1.78960991,4.61481399999957,-2.25428605,-0.00549749471,0.0252863616,4.61481399999957,-18.7851143,13.6405115,7.38492632
4.62654699999894,6.27758551,0.420905322,1.15739691,4.62654699999894,-2.24825406,-0.00150042772,0.0306775086,4.62654699999894,-18.7202492,13.7385416,7.68665743
4.63843899999938,3.93626857,0.460550398,1.19083679,4.63843899999938,-2.25749612,-0.0225048754,0.0254403949,4.63843899999938,-20.2814999,13.181324,7.82594299
4.65082799999891,1.90162337,0.350297034,1.07113242,4.65082799999891,-2.25317454,-0.0260784235,0.0263771936,4.65082799999891,-18.7401485,13.0327339,8.22285366
4.66327099999944,-0.0265694745,0.442785352,1.29947841,4.66327099999944,-2.24479365,-0.0196132567,0.0187147744,4.66327099999944,-19.0720692,12.9445066,8.92849064
4.67446599999948,-1.84622359,0.455392689,1.6017102,4.67446599999948,-2.24550605,-0.0141591039,0.0284199137,4.67446599999948,-19.2083206,12.7092371,9.05102062
4.68691599999966,-3.51061797,0.473535389,1.39454293,4.68691599999966,-2.2484386,-0.0228325371,0.00583765004,4.68691599999966,-20.0550079,12.2607613,9.14899158
4.69873899999948,-5.32436657,-0.0824364275,1.79828429,4.69873899999948,-2.25405121,-0.0335392058,0.0157503467,4.69873899999948,-19.5734711,11.9972467,9.91493988
4.7105619999993,-6.80302715,-0.151689872,1.52020597,4.7105619999993,-2.25455523,-0.0385242552,0.011801511,4.7105619999993,-19.5281334,11.8347216,9.63636017
4.72301499999867,-8.62131786,-0.083540462,1.8251996,4.72301499999867,-2.26009178,-0.0281802695,0.0197257884,4.72301499999867,-19.0860748,11.4005575,9.98686314
4.73483499999929,-10.2049761,-0.0744070262,2.15078497,4.73483499999929,-2.26416111,-0.0144111551,0.0250203088,4.73483499999929,-19.7449818,11.4052086,10.3791819
4.74665899999945,-11.4259443,0.310752273,1.75554144,4.74665899999945,-2.27429914,-0.036983937,0.0271207541,4.74665899999945,-19.5433178,11.4748583,10.3095312
4.75848299999871,-12.3919783,0.159197718,1.12621999,4.75848299999871,-2.28253293,-0.045217678,0.0285770576,4.75848299999871,-19.494257,10.9640703,10.4951906
4.77093099999911,-13.4764843,0.834431052,4.18437672,4.77093099999911,-2.29406714,-0.0379711464,0.0280799586,4.77093099999911,-19.612709,11.1469126,11.3540239
4.78338399999939,-14.3043509,0.062104959,2.92632437,4.78338399999939,-2.30167675,0.00342721585,0.0224927757,4.78338399999939,-19.321722,10.3528805,11.7509251
4.794578,-14.8851843,0.966038764,3.12507844,4.794578,-2.31403065,0.008633052,0.0257889181,4.794578,-19.2980766,10.1237459,12.1012983
4.80650699999933,-15.8814964,0.220421672,2.16662478,4.80650699999933,-2.31863284,0.0248811562,0.022023676,4.80650699999933,-20.0157528,10.2095203,11.8530693
4.81885199999942,-16.5023804,0.85421592,1.66659939,4.81885199999942,-2.3242383,0.0225034505,0.0137129165,4.81885199999942,-19.3328037,9.39342785,12.3462963
4.83067399999982,-16.4415455,0.357422978,1.61046839,4.83067399999982,-2.33196354,0.0286619533,0.0209594518,4.83067399999982,-19.4957676,8.93251991,12.1895771
4.84375699999964,-16.186924,0.690738022,0.919834495,4.84375699999964,-2.34514642,0.0247357897,0.0193444397,4.84375699999964,-19.5973873,8.86514282,12.5720701
4.85494599999947,-15.3982143,0.149481639,0.655311346,4.85494599999947,-2.35674739,0.0134811886,0.0224484298,4.85494599999947,-18.818758,8.7390852,12.6035547
4.86677099999997,-14.6996708,0.556401134,0.610794723,4.86677099999997,-2.37248826,-0.0104343183,0.0153582655,4.86677099999997,-19.2451077,8.09672165,12.8511276
4.87859499999922,-14.7799664,-0.251304328,0.466224313,4.87859499999922,-2.37428069,-0.0129828546,0.0231159069,4.87859499999922,-19.9538822,7.40019941,13.2921419
4.89104299999872,-15.0023041,0.818936765,0.996848285,4.89104299999872,-2.3439796,-0.0231252071,0.0215349719,4.89104299999872,-19.7302704,7.36422491,13.118062
4.90349199999946,-15.3593864,0.238500416,1.09382367,4.90349199999946,-2.33333731,-0.0382638052,0.0176771544,4.90349199999946,-20.1767521,6.90104485,13.3385735
4.9146899999987,-14.9609318,0.322698832,1.08233213,4.9146899999987,-2.35021424,-0.0522051603,0.0146145523,4.9146899999987,-20.0424881,6.60693789,13.8530817
4.92652699999871,-14.5937853,0.330323845,1.34999001,4.92652699999871,-2.37089181,-0.0419969931,0.019615164,4.92652699999871,-19.1379108,6.28583622,13.6519365
4.9390599999997,-13.7668219,0.147203848,1.5973314,4.9390599999997,-2.3880384,-0.0473363325,0.0224395636,4.9390599999997,-19.5345135,6.02980566,13.8347082
4.95205999999871,-13.0127134,-0.119046599,2.01242828,4.95205999999871,-2.40636468,-0.0464659333,0.0133645087,4.95205999999871,-19.9282017,5.85074472,14.1365948
4.96322999999938,-13.7868185,0.31846109,2.43452001,4.96322999999938,-2.41643262,-0.0398187563,0.0338297263,4.96322999999938,-19.4436321,5.33259249,13.8775883
4.97443799999928,-15.322464,-0.345802873,2.63622069,4.97443799999928,-2.42157602,-0.0267524365,0.019521812,4.97443799999928,-19.3759937,4.98951483,14.073597
4.98688799999945,-15.5410242,0.318116635,2.3676405,4.98688799999945,-2.44489479,-0.0292444918,0.0223065335,4.98688799999945,-19.2545471,4.73949862,14.2205944
4.99870699999974,-15.8446121,0.111774199,1.6348567,4.99870699999974,-2.45510554,-0.0148032438,0.0195031427,4.99870699999974,-19.0069675,4.03368855,14.104537
5.01052999999865,-15.6672125,0.209632263,2.71297574,5.01052999999865,-2.46695256,-0.00514119677,0.0344863161,5.01052999999865,-19.4695015,3.82478499,14.3830776
5.02305999999953,-15.3081369,0.264006227,1.7167592,5.02305999999953,-2.47990775,0.0119144116,0.0236900281,5.02305999999953,-19.3233223,3.15152264,14.1103506
5.03480299999956,-15.2444162,0.565685213,2.087677,5.03480299999956,-2.49114943,-0.00760572031,0.0356625579,5.03480299999956,-19.569109,2.93094563,14.59198
5.04662699999881,-15.0936127,0.404846668,1.35879004,5.04662699999881,-2.49789882,-0.00357286446,0.0302854218,5.04662699999881,-19.7600346,2.93086314,14.6616087
5.05845099999988,-15.2060251,0.724767208,1.4794749,5.05845099999988,-2.50134325,-0.000744265504,0.0261965618,5.05845099999988,-19.6937828,2.13000774,14.5919819
5.07089899999937,-15.103138,-0.00678463792,0.988249481,5.07089899999937,-2.50914741,-0.00883798115,0.0227056202,5.07089899999937,-19.564127,1.38700581,14.374958
5.08334799999921,-15.0030184,1.10712874,1.09836197,5.08334799999921,-2.51952338,-0.00692237355,0.0208698325,5.08334799999921,-19.5945511,1.26567388,14.9041653
5.09454599999935,-15.0046349,0.0747916773,0.86152333,5.09454599999935,-2.52501321,-0.0172335319,0.0284199174,5.09454599999935,-19.871376,0.688546479,14.943368
5.10637099999894,-14.7179899,0.993249536,1.06688344,5.10637099999894,-2.53329825,-0.0198723134,0.0144620761,5.10637099999894,-19.7943039,0.318986028,14.6964283
5.11881999999878,-14.7834787,0.259715527,1.2693826,5.11881999999878,-2.5439477,-0.0328894705,0.0177835785,5.11881999999878,-19.4158154,0.195915386,14.4852057
5.13064599999871,-14.7094574,0.80982846,1.77037597,5.13064599999871,-2.56418872,-0.0352475718,0.00634035654,5.13064599999871,-20.1163177,-0.482106417,14.7428465
5.14309199999934,-14.6273451,0.142913178,0.937851071,5.14309199999934,-2.57829547,-0.0373060033,0.0103606079,5.14309199999934,-19.4403019,-1.03921211,14.7608395
5.15491899999961,-14.5232801,0.37348181,2.11960816,5.15491899999961,-2.58715343,-0.0330630988,0.011269399,5.15491899999961,-18.9878407,-0.876745462,14.8240881
5.16673899999932,-14.7413244,-0.0982442424,1.44301808,5.16673899999932,-2.60168862,-0.0451616645,0.0106812753,5.16673899999932,-19.1311741,-1.24818444,14.4991331
5.17856199999915,-14.3187771,0.189809784,2.38058949,5.17856199999915,-2.61471128,-0.034855485,0.0109053236,5.17856199999915,-18.7485466,-2.01436925,14.5687656
5.19101499999942,-14.449996,-0.630366325,2.06262207,5.19101499999942,-2.62121058,-0.0262114536,0.0100945514,5.19101499999942,-19.4252548,-2.27448702,14.0441875
5.20345999999972,-14.3184137,0.287605107,1.96994615,5.20345999999972,-2.6298306,-0.0127490088,0.0156019144,5.20345999999972,-19.5864735,-2.40675974,13.7795849
5.21465799999987,-14.1904612,-0.816720486,2.19991088,5.21465799999987,-2.64062929,-0.00718251616,0.0219163205,5.21465799999987,-19.2513256,-2.92626524,13.4365816
5.22653099999934,-14.3546581,0.111021452,1.37437856,5.22653099999934,-2.65607643,-0.0181919597,0.0295292623,5.22653099999934,-19.2467804,-3.24484563,13.5126629
5.23893099999896,-14.2387962,-0.436092973,1.61285686,5.23893099999896,-2.66391253,-0.0100352336,0.0321772248,5.23893099999896,-20.1527443,-3.90636492,13.1732235
5.25075899999956,-14.1574364,0.156688526,1.77037597,5.25075899999956,-2.67937708,-0.0241852272,0.0342622623,5.25075899999956,-19.6319065,-4.56824303,13.2457342
5.26320799999939,-14.2657347,0.00584909832,1.28036976,5.26320799999939,-2.69128966,-0.0206242707,0.0355029255,5.26320799999939,-19.6306362,-4.83283377,13.118083
5.27439799999865,-14.0596209,0.649798453,1.84985483,5.27439799999865,-2.70791245,-0.027018493,0.0444424227,5.27439799999865,-19.7473602,-5.18088436,12.7750673
5.28685199999927,-14.0831423,0.340046942,1.53498995,5.28685199999927,-2.72111416,-0.0308940466,0.0456928797,5.28685199999927,-19.132864,-5.67105341,12.853467
5.29866999999922,-13.9634781,0.998769879,1.67181671,5.29866999999922,-2.73810554,-0.0151673127,0.0426640362,5.29866999999922,-20.1602535,-6.17018986,12.6190405
5.3105029999997,-13.8089132,0.575220108,1.36809266,5.3105029999997,-2.75146437,-0.0138230342,0.0281009655,5.3105029999997,-19.3887596,-6.42553329,12.2708807
5.32357299999876,-13.9825459,0.96066612,1.60751116,5.32357299999876,-2.76716232,-0.025941601,0.0257551335,5.32357299999876,-18.9157391,-7.09956121,11.8790264
5.33481399999891,-13.7579489,0.302039832,1.66195512,5.33481399999891,-2.78205323,-0.0275801662,0.0254637394,5.33481399999891,-18.9104156,-6.70038033,11.4275274
5.34659499999998,-13.7113037,1.18695843,1.76761031,5.34659499999998,-2.79350114,-0.0230089705,0.0181588586,5.34659499999998,-19.4412174,-7.38914204,11.3308163
5.35841799999889,-13.8601007,0.234473228,1.35401297,5.35841799999889,-2.81167698,-0.0194242168,0.0137619246,5.35841799999889,-19.6227322,-7.66780996,11.017457
5.37087199999951,-13.4991293,0.975785613,1.8053745,5.37087199999951,-2.82939935,-0.033873871,0.0107596917,5.37087199999951,-19.766119,-8.21840954,10.4940958
5.38331599999947,-13.6109238,-0.193430081,1.42654967,5.38331599999947,-2.83921695,-0.0183627941,0.0119835511,5.38331599999947,-18.9259472,-8.38403702,10.2514925
5.39450999999917,-13.4716368,0.454068393,1.6781441,5.39450999999917,-2.84856677,-0.0072120782,0.00766752753,5.39450999999917,-19.0974445,-8.72221279,10.6190052
5.40696399999888,-13.6612215,-0.213453323,1.15520954,5.40696399999888,-2.86337447,-0.0195068326,0.0158147626,5.40696399999888,-19.9367752,-8.43900585,9.72232437
5.41881799999919,-13.3823509,0.195329964,1.69394231,5.41881799999919,-2.87037754,-0.0223648418,0.019895222,5.41881799999919,-19.6614304,-8.97951794,8.92847157
5.43061099999886,-13.4026766,-0.566959381,1.42240119,5.43061099999886,-2.88239217,-0.0287501905,0.0223597456,5.43061099999886,-19.3422222,-9.29302788,8.71954823
5.44306399999914,-13.340373,0.176761985,1.21444595,5.44306399999914,-2.88630843,-0.0293509196,0.0314854793,5.44306399999914,-19.5345345,-9.64092636,8.20089436
5.45488299999943,-13.4056864,-0.0884584263,1.88754082,5.45488299999943,-2.90031576,-0.0316068009,0.0301173851,5.45488299999943,-19.0356846,-10.1983337,7.86078548
5.46670699999868,-13.3477249,0.619883299,1.45433235,5.46670699999868,-2.90826988,-0.0355276242,0.0328339636,5.46670699999868,-19.0343246,-10.2329206,8.05815506
5.47852999999941,-13.0421047,-0.021463301,1.40429842,5.47852999999941,-2.92056441,-0.0475421697,0.0262525715,5.47852999999941,-18.7861156,-10.140316,6.94394827
5.49106399999891,-13.2645693,0.171994552,1.88563013,5.49106399999891,-2.92512631,-0.0281270575,0.0275744479,5.49106399999891,-19.3351898,-10.7441053,6.72338486
5.50342799999908,-13.2073622,0.213232934,1.47312641,5.50342799999908,-2.940238,-0.0403124467,0.0249404926,5.50342799999908,-19.8986816,-10.8985424,6.19415569
5.51462199999969,-13.1826754,0.259662569,2.33446622,5.51462199999969,-2.94819021,-0.029472122,0.0267348979,5.51462199999969,-19.3149986,-11.5527716,6.45390224
5.52653499999997,-12.9728546,0.193322554,1.50386345,5.52653499999997,-2.95840025,-0.0163155589,0.0329179764,5.52653499999997,-18.9546127,-11.4405651,5.55124378
5.53889899999922,-13.1377563,0.23444806,1.58085024,5.53889899999922,-2.97035575,-0.0357894823,0.0276808701,5.53889899999922,-19.4013863,-11.549325,5.10260105
5.55197299999872,-13.0068102,-0.147197202,1.60227919,5.55197299999872,-2.97993159,-0.0358490273,0.0297333039,5.55197299999872,-19.4463997,-11.532012,4.7072525
5.56379099999958,-12.8682194,0.411370546,1.43648088,5.56379099999958,-2.98884249,-0.0409327671,0.0366427638,5.56379099999958,-19.2008076,-12.1488514,3.82194448
5.57436499999949,-12.9137993,-0.0125335939,1.81026411,5.57436499999949,-2.99465466,-0.0330021456,0.0440511629,5.57436499999949,-19.7177067,-12.0803871,3.84387183
5.58681999999953,-12.8185768,0.473297,1.24860215,5.58681999999953,-3.00225616,-0.0325435922,0.0346515477,5.58681999999953,-19.2427044,-12.0673599,3.10714841
5.59864199999993,-12.7982149,-0.00113895501,1.70877647,5.59864199999993,-3.008811,-0.0328110456,0.0341222323,5.59864199999993,-19.5697308,-11.9860907,2.42938828
5.61046699999952,-12.8182869,0.7124722,1.27707613,5.61046699999952,-3.01480412,-0.0383282155,0.0332540497,5.61046699999952,-20.0572643,-12.1952791,1.87219822
5.62354099999993,-12.7750206,0.646468759,1.2801652,5.62354099999993,-3.02260208,-0.0529526547,0.0282383244,5.62354099999993,-19.9137421,-12.1934938,1.71477032
5.63481799999954,-12.6217079,0.815069795,1.73573482,5.63481799999954,-3.02700233,-0.0368625745,0.0181324072,5.63481799999954,-19.2519894,-12.459527,0.610511601
5.64656999999988,-12.6396341,0.217159778,1.24439061,5.64656999999988,-3.03471661,-0.0507628471,0.0263925977,5.64656999999988,-19.5256577,-12.0211506,0.549155235
5.65838599999915,-12.6777725,0.920734346,1.92324364,5.65838599999915,-3.03709698,-0.0449376181,0.0212395098,5.65838599999915,-18.7343616,-11.765626,0.549237907
5.67083599999933,-12.6529093,0.336471438,1.56436932,5.67083599999933,-3.04064798,-0.0494115651,0.0121165765,5.67083599999933,-19.3594456,-11.8687057,-0.178280979
5.68328399999973,-12.5632811,0.517395914,1.94295561,5.68328399999973,-3.04692698,-0.0513271764,0.0110789593,5.68328399999973,-19.3351212,-12.3983374,-0.939208031
5.69447799999944,-12.5486059,-0.119349264,1.98308301,5.69447799999944,-3.04731154,-0.0350297466,0.0110671343,5.69447799999944,-18.955862,-12.3002234,-1.41078734
5.70692699999927,-12.5532675,-0.0196566992,1.87774765,5.70692699999927,-3.04668736,-0.0328096524,0.00684866402,5.70692699999927,-19.5366402,-12.1224957,-1.65575361
5.71875499999896,-12.5914574,-0.11631038,2.00194049,5.71875499999896,-3.04687047,-0.0220287722,0.0231719185,5.71875499999896,-19.5068817,-11.5332966,-2.50290799
5.73057899999912,-12.3734112,-0.15821369,1.90589488,5.73057899999912,-3.04975533,-0.0165396091,0.0146861244,5.73057899999912,-19.8385868,-12.0441847,-3.01363516
5.74369299999944,-12.5025969,-0.349700063,1.70510066,5.74369299999944,-3.05118346,-0.0307306144,0.0238547288,5.74369299999944,-19.6698704,-11.6682854,-3.36732602
5.75502999999935,-12.3862486,-0.302895874,1.425488,5.75502999999935,-3.05446482,-0.0416515917,0.0274739359,5.75502999999935,-20.0305176,-11.2096586,-3.49332929
5.76666999999998,-12.4020138,-0.247791484,1.12697446,5.76666999999998,-3.05527282,-0.0485503748,0.0354665183,5.76666999999998,-19.882885,-11.3476686,-4.25542641
5.77850299999955,-12.3611164,0.0390079543,1.29744184,5.77850299999955,-3.04608727,-0.0265377257,0.0296132825,5.77850299999955,-19.5876045,-11.1851521,-4.74286032
5.79094799999893,-12.3368254,-0.17555213,1.47097659,5.79094799999893,-3.04288268,-0.015861867,0.0473690368,5.79094799999893,-19.9183159,-10.6557894,-5.00747013
5.80339199999889,-12.1384993,0.304767877,0.983711302,5.80339199999889,-3.05097103,-0.046751,0.0342524648,5.80339199999889,-19.123455,-10.6556578,-5.36015034
5.81458999999904,-12.3658543,0.00619344087,1.02845705,5.81458999999904,-3.04580379,-0.0297677349,0.0376727656,5.81458999999904,-19.481369,-10.2785625,-6.13956404
5.8264139999992,-12.2123203,0.618127048,1.70349634,5.8264139999992,-3.0539844,-0.0530873388,0.0404235646,5.8264139999992,-19.4782486,-10.0244131,-6.78556299
5.83887199999936,-12.2724657,0.284506232,1.59924221,5.83887199999936,-3.06073546,-0.0578189418,0.0426066332,5.83887199999936,-19.5957279,-9.96101665,-7.24559927
5.85069099999873,-12.1909933,0.863274157,1.70073068,5.85069099999873,-3.06118202,-0.0466179699,0.0335061066,5.85069099999873,-19.7500114,-9.38581848,-7.60943174
5.86313999999948,-12.2462444,0.320023715,2.01150727,5.86313999999948,-3.06344891,-0.0448620021,0.0307405144,5.86313999999948,-19.5256004,-8.97951794,-7.78583097
5.87495899999976,-12.0687952,0.72928375,2.09647679,5.87495899999976,-3.06762314,-0.0559719577,0.0324138775,5.87495899999976,-19.6476269,-8.75875759,-8.49123955
5.88678199999868,-12.1370449,0.557906628,2.23903584,5.88678199999868,-3.07314038,-0.0579603687,0.0206233785,5.88678199999868,-19.6157055,-8.68907166,-8.63047123
5.89861099999962,-11.9681778,0.777710974,2.36374354,5.89861099999962,-3.08151436,-0.0524992198,0.0195591524,5.89861099999962,-19.9271812,-8.22494602,-8.72356033
5.91106799999943,-12.1642456,0.00894798525,1.76214182,5.91106799999943,-3.08090258,-0.0439041927,0.0238230564,5.91106799999943,-19.3867645,-7.87689686,-9.06501579
5.92287899999883,-12.0261393,0.438218623,2.26895571,5.92287899999883,-3.08319426,-0.0321949199,0.0138459466,5.92287899999883,-18.5283489,-7.69100475,-9.37352753
5.9347029999999,-12.0861082,0.00563586177,1.7321589,5.9347029999999,-3.07725716,-0.0111624729,0.0254964083,5.9347029999999,-19.9780216,-6.58804178,-9.59384727
5.9465339999997,-12.0529881,0.116792575,2.00395203,5.9465339999997,-3.0772295,-0.0302625168,0.0301453955,5.9465339999997,-19.7543831,-6.28637457,-9.94220829
5.95906799999921,-12.7682819,0.118122436,1.81803393,5.95906799999921,-3.0685575,-0.0276481602,0.0292506032,5.95906799999921,-19.8783016,-5.45035934,-10.8065519
5.97079899999972,-14.1095133,0.0731327832,1.52573752,5.97079899999972,-3.06927562,-0.029310314,0.0228358489,5.97079899999972,-19.834816,-5.52010202,-11.0678234
5.98325199999908,-14.9505777,-0.376023173,1.30306125,5.98325199999908,-3.06717372,-0.0322243273,0.0310597867,5.98325199999908,-19.5479202,-5.07562494,-10.4430552
5.99444499999936,-15.3809977,0.474727303,1.88143671,5.99444499999936,-3.06389546,-0.0331673473,0.0375249498,5.99444499999936,-20.0533009,-4.97234106,-11.2841082
6.00689899999907,-15.58393,0.0170526654,1.6453414,6.00689899999907,-3.05171585,-0.028446326,0.0396001935,6.00689899999907,-19.9967022,-4.55699348,-11.0710325
6.01872299999923,-16.0834846,0.81559962,1.47670937,6.01872299999923,-3.0413816,-0.0323629528,0.0371748842,6.01872299999923,-19.3162346,-3.77878928,-11.7060947
6.03054699999939,-15.9986753,0.334589452,1.69444513,6.03054699999939,-3.03594851,-0.0391683951,0.0345143154,6.03054699999939,-19.3727798,-3.46534228,-11.7176485
6.04307199999948,-15.9076414,1.10903561,1.39932013,6.04307199999948,-3.02771783,-0.0366674736,0.038802024,6.04307199999948,-19.0414982,-2.68221498,-11.6112289
6.05481799999961,-16.1635284,0.466572464,1.57049131,6.05481799999961,-3.02757478,-0.0344073847,0.033170037,6.05481799999961,-20.1218739,-1.92136681,-12.2398319
6.06664199999886,-16.0624084,1.09913707,1.52749753,6.06664199999886,-3.02973127,-0.0387763157,0.0239840914,6.06664199999886,-19.5609436,-1.67758608,-12.4023027
6.07846699999936,-15.7618074,0.483132988,1.97906029,6.07846699999936,-3.0371809,-0.0423330665,0.0244601909,6.07846699999936,-19.5967178,-1.14365125,-12.9130602
6.09091199999875,-15.9252815,0.921436846,1.90043914,6.09091199999875,-3.0392642,-0.0340867266,0.0265634377,6.09091199999875,-19.0767632,-1.19361389,-12.6589956
6.10335999999916,-15.8704548,0.0559072755,1.85792267,6.10335999999916,-3.03306556,-0.0345390216,0.0206835903,6.10335999999916,-19.3561153,-0.950987995,-12.5046253
6.11455299999943,-15.7653074,0.810037673,2.04412389,6.11455299999943,-3.03637338,-0.026870681,0.0183097757,6.11455299999943,-19.0863152,0.0636682361,-12.9013872
6.126385999999,-15.7301941,0.640709579,2.32049823,6.126385999999,-3.03631258,-0.0371799767,0.0199232325,6.126385999999,-19.4399643,0.469896525,-12.9015579
6.13883199999964,-15.7350616,0.353634238,1.15377665,6.13883199999964,-3.02218366,-0.0274087097,0.0190074351,6.13883199999964,-19.5321693,1.53029978,-13.0229578
6.15190499999972,-15.7396917,0.335449785,2.46170473,6.15190499999972,-3.02835393,-0.0321242362,0.0234493092,6.15190499999972,-19.6059303,2.16418147,-13.4581261
6.16310199999953,-15.4419155,0.477111042,2.0056417,6.16310199999953,-3.02106047,-0.025954267,0.0223893076,6.16310199999953,-19.5006638,3.22500777,-13.0730639
6.17492599999878,-15.6978254,0.310752332,1.31152177,6.17492599999878,-3.01376796,-0.0199843366,0.0197551921,6.17492599999878,-19.6761951,3.98730516,-12.8551397
6.18675499999972,-15.3894472,0.306235731,2.14575648,6.18675499999972,-3.00990319,-0.0286661778,0.0269807242,6.18675499999972,-19.9368439,4.38202429,-13.4353094
6.19857499999944,-15.5972071,0.209632263,1.02313519,6.19857499999944,-2.9999609,-0.0312707275,0.0297533087,6.19857499999944,-20.0992584,4.63741255,-13.6906376
6.21106799999961,-15.5603333,-0.109284684,2.03825879,6.21106799999961,-3.00890732,-0.0258123744,0.0297295079,6.21106799999961,-19.7500114,4.41972733,-13.7835741
6.22347199999876,-15.3770247,0.534797072,1.77074051,6.22347199999876,-3.0135901,-0.0318784565,0.0313524455,6.22347199999876,-19.7920895,4.77262831,-13.1551361
6.23466899999949,-15.559247,0.00778257754,1.14496517,6.23466899999949,-3.02179909,-0.0220816713,0.0313465372,6.23466899999949,-20.0305176,5.41838932,-13.1220608
6.24652299999889,-15.4574451,0.396817207,2.02934599,6.24652299999889,-3.02183366,-0.0288062003,0.0357745849,6.24652299999889,-20.0254745,5.9491787,-13.1219749
6.25894799999969,-15.3751183,0.2656748,1.18458903,6.25894799999969,-3.02149177,-0.0290582571,0.0325763077,6.25894799999969,-20.355093,6.3276453,-12.857235
6.27076699999907,-15.2494326,0.197839171,2.31320667,6.27076699999907,-3.02211332,-0.032082893,0.0413757674,6.27076699999907,-19.9246368,6.2393856,-12.332839
6.2832159999989,-15.0857334,0.607500613,1.43610382,6.2832159999989,-3.01731491,-0.0319582745,0.0384029448,6.2832159999989,-20.0278606,7.11056423,-11.9976892
6.29441299999871,-15.3420649,0.375140607,2.08844519,6.29441299999871,-3.01662636,-0.0355027318,0.0373180211,6.29441299999871,-19.880022,7.34217787,-11.9216242
6.3068719999992,-15.0065956,0.699512184,1.37089622,6.3068719999992,-3.02511072,-0.0277013723,0.0380836725,6.3068719999992,-19.5945511,7.73921537,-11.9423323
6.31868699999995,-15.1990004,0.479620069,1.90664935,6.31868699999995,-3.03317595,-0.0368158966,0.0362786911,6.31868699999995,-19.5697308,8.50306034,-11.5784693
6.33051099999921,-15.1400328,0.864026725,1.55993152,6.33051099999921,-3.03636885,-0.0339032859,0.033758156,6.33051099999921,-19.476366,8.49142933,-11.7527323
6.34307199999876,-15.1253033,0.195116684,2.29455066,6.34307199999876,-3.03891873,-0.0335546061,0.0338533781,6.34307199999876,-19.7270298,9.34933853,-10.8948088
6.35502599999927,-14.9754314,0.927007198,1.52800035,6.35502599999927,-3.04098964,-0.0300104562,0.0333940797,6.35502599999927,-19.7500114,9.83804512,-10.4760056
6.36660699999902,-15.0386629,0.432447553,2.55055404,6.36660699999902,-3.04196978,-0.0255015027,0.0285770576,6.36660699999902,-19.4786568,10.3023949,-10.3714609
6.3784429999987,-14.8544893,0.772692561,1.70550776,6.3784429999987,-3.03314781,-0.0288902204,0.0311536044,6.3784429999987,-19.3767929,10.6506367,-9.97713184
6.39088399999946,-14.9982519,0.620849431,1.99741447,6.39088399999946,-3.0302186,-0.0227793287,0.0254459996,6.39088399999946,-19.240366,11.1800013,-9.99080563
6.40332799999942,-15.0349617,1.11499512,1.74136126,6.40332799999942,-3.02018809,-0.0205444526,0.0256854482,6.40332799999942,-19.4576035,12.2387047,-9.8583889
6.41452899999877,-14.9137888,0.894262254,2.0746448,6.41452899999877,-3.01349258,-0.0234710779,0.0216207039,6.41452899999877,-20.3964806,12.4151554,-9.66735458
6.42697999999928,-14.9069557,0.890210152,1.65776181,6.42697999999928,-3.00504947,-0.0166866463,0.0158413686,6.42697999999928,-19.8962193,12.3048744,-9.04281044
6.43880300000001,-14.6695604,1.07981658,1.75403309,6.43880300000001,-2.99452806,-0.0161755346,0.0123616308,6.43880300000001,-19.3699188,12.3455048,-9.00215721
6.45062299999972,-14.6585217,0.753371894,1.92123199,6.45062299999972,-2.9877224,-0.0130108632,0.00919696223,6.45062299999972,-19.6513729,12.6008911,-8.93230438
6.46307599999909,-14.9641638,0.725494802,1.79414845,6.46307599999909,-2.99038982,-0.0175646264,0.0110789593,6.46307599999909,-19.6796055,13.0768385,-7.87382555
6.47489799999948,-14.5681906,0.534320354,1.32685876,6.47489799999948,-2.98926258,-0.0115825608,0.0082167536,6.47489799999948,-19.5622253,13.158102,-7.08702421
6.48671899999954,-14.9267521,0.949840784,1.5174402,6.48671899999954,-2.99032688,-0.0192001704,0.00807672273,6.48671899999954,-20.0509281,13.1813288,-6.71588326
6.49854299999879,-14.9074326,0.676340103,1.43396664,6.49854299999879,-2.98727465,-0.0184720177,0.00197143247,6.49854299999879,-19.7352467,13.2277594,-6.05428505
6.51107999999931,-14.5708504,0.711907625,1.41365147,6.51107999999931,-2.9817431,-0.0247215424,-0.00107981334,6.51107999999931,-19.9305496,13.3084373,-6.01074696
6.52345099999911,-14.9131536,0.760297179,1.69573987,6.52345099999911,-2.98371196,-0.0219279509,0.000995425973,6.52345099999911,-19.5829334,13.628233,-5.56939697
6.53464199999962,-14.6354237,0.255954593,1.37638974,6.53464199999962,-2.98298502,-0.0305067841,0.000306636095,6.53464199999962,-19.1843777,13.8733225,-5.14705992
6.54655899999943,-14.7212505,0.672827125,1.7047534,6.54655899999943,-2.97912455,-0.0226449054,0.00283961603,6.54655899999943,-19.3247643,14.2028656,-4.97481346
6.55891199999951,-14.6342573,0.401547074,1.47217107,6.55891199999951,-2.97003675,-0.0247215386,0.00336332712,6.55891199999951,-19.6455765,14.4663668,-4.72054768
6.57073499999933,-14.8304014,0.269350857,1.91670644,6.57073499999933,-2.96318936,-0.0245493036,0.00239152135,6.57073499999933,-20.2347012,15.2128277,-4.13933945
6.58318299999974,-14.8971834,0.170564309,1.40123081,6.58318299999974,-2.96671081,-0.0167664569,0.00831197388,6.58318299999974,-19.884325,15.6133156,-4.08127403
6.59438599999976,-15.0382729,0.322963655,1.68053257,6.59438599999976,-2.95880342,-0.0227615889,0.00852481928,6.59438599999976,-19.5640659,15.1109037,-3.07664442
6.60683199999949,-14.8049316,-0.0599415973,2.29192376,6.60683199999949,-2.95261002,-0.0232848395,0.0141120031,6.60683199999949,-19.7500114,14.8413572,-2.17397261
6.61865499999931,-14.9490843,0.320789009,1.67684507,6.61865499999931,-2.95106292,-0.0185560379,0.0159463882,6.61865499999931,-20.1633987,15.3289165,-1.551337
6.63047899999947,-14.7255163,0.149662808,1.62429702,6.63047899999947,-2.94299674,-0.0198443066,0.0204553455,6.63047899999947,-19.8078098,16.1182976,-1.41205633
6.64355999999952,-14.8168497,-0.331992447,1.4655627,6.64355999999952,-2.93520856,-0.0187707469,0.0244881958,6.64355999999952,-19.8096848,16.6058044,-0.868054569
6.65482599999905,-14.7890406,0.481348634,1.83340049,6.65482599999905,-2.93666124,-0.0164944883,0.0265575238,6.65482599999905,-20.0238667,16.3117599,-0.553187251
6.66657499999928,-15.086338,0.0209417883,2.1339395,6.66657499999928,-2.93560338,-0.0177158546,0.0319657773,6.66657499999928,-19.6988411,15.8164635,-0.297872037
6.67844699999932,-14.6853714,0.267092466,1.43094969,6.67844699999932,-2.92767763,-0.0148592535,0.0309575647,6.67844699999932,-19.4663677,15.5610819,-0.112216182
6.69084799999928,-15.0526009,0.0344537981,1.61572337,6.69084799999928,-2.92853189,-0.0149838757,0.0362478904,6.69084799999928,-20.2172546,15.1942396,0.902163327
6.70329499999934,-14.7250776,0.837529719,1.92814612,6.70329499999934,-2.92318368,-0.0211031754,0.0401589125,6.70329499999934,-20.2268791,15.8118343,1.34309113
6.71449399999892,-15.0316505,0.275024295,1.60303724,6.71449399999892,-2.93003917,-0.0237962548,0.0379979387,6.71449399999892,-19.6565094,15.3069897,2.04380631
6.72694399999909,-14.8044548,0.56316334,2.19232059,6.72694399999909,-2.92313051,-0.0200123433,0.0418616682,6.72694399999909,-19.6939068,15.1942568,2.79842257
6.73876699999983,-14.6432161,0.597049832,1.76383901,6.73876699999983,-2.91398287,-0.0197602864,0.0389392488,6.73876699999983,-20.2424831,15.4565916,2.97490191
6.75184499999978,-14.6272869,0.732509971,2.01288342,6.75184499999978,-2.90541053,-0.0120559949,0.0351557843,6.75184499999978,-19.7761574,15.6290817,3.60484886
6.76303699999971,-14.8359194,0.514455974,1.81827283,6.76303699999971,-2.89512682,-0.0147799011,0.0357512422,6.76303699999971,-19.6604691,15.2089691,3.78331923
6.77486299999964,-14.825634,0.933781981,1.73241067,6.77486299999964,-2.89799166,-0.0116385724,0.0377630107,6.77486299999964,-19.7414932,15.0619297,4.2862072
6.78668699999889,-14.8687887,0.481627494,2.30063534,6.78668699999889,-2.88356829,-0.00687756389,0.0282129813,6.78668699999889,-20.0229435,15.0619059,4.3791523
6.79851099999996,-14.7468433,1.28030002,1.90690076,6.79851099999996,-2.8799839,-0.0061494112,0.0307615213,6.79851099999996,-19.5850868,14.8877859,4.99420977
6.81106799999998,-14.6745415,0.505477369,1.89207911,6.81106799999998,-2.87486839,-0.00649668276,0.0275478438,6.81106799999998,-20.3329449,14.7090321,5.27905846
6.82344299999932,-14.8566608,1.08090782,1.72655225,6.82344299999932,-2.86683345,-0.00670952722,0.0186615624,6.82344299999932,-19.1812935,14.1134872,5.99579763
6.8346019999999,-14.51968,0.534055531,1.24422288,6.8346019999999,-2.85288286,-0.00271868333,0.0206747204,6.8346019999999,-19.7439957,14.2899389,6.28244209
6.84653499999968,-14.8429461,0.955361068,1.79853606,6.84653499999968,-2.83901072,-0.0091180373,0.0215475727,6.84653499999968,-20.1218643,14.0403471,6.14321136
6.85887999999886,-14.8566608,0.555297017,0.94071722,6.85887999999886,-2.84690571,-0.0125361625,0.0127551155,6.85887999999886,-19.5793076,13.4297457,7.12034178
6.87070299999959,-14.6733255,0.317527056,1.6994735,6.87070299999959,-2.85368609,-0.00838988274,0.0170106161,6.87070299999959,-19.6171417,13.8430147,7.86076117
6.88315099999909,-14.6747818,0.476872653,1.15019381,6.88315099999909,-2.85230684,-0.010753585,0.0151762255,6.88315099999909,-18.8143826,14.2458382,7.96925306
6.89497499999925,-14.8665333,0.13561137,1.33213854,6.89497499999925,-2.84727263,-0.0151953232,0.0214635581,6.89497499999925,-18.928793,13.9591084,8.17408466
6.90679899999941,-15.0630016,0.0703727305,1.46916652,6.90679899999941,-2.83181357,-0.0196762737,0.0183268934,6.90679899999941,-19.756567,13.3554487,8.33662415
6.91862299999866,-14.6713181,0.283151239,1.19008255,6.91862299999866,-2.84293175,-0.0206004698,0.0270647388,6.91862299999866,-20.2648468,12.7053709,8.63834
6.93044699999973,-14.8647757,-0.00640825043,1.83323264,6.93044699999973,-2.8375268,-0.0236531142,0.0265886448,6.93044699999973,-18.987133,11.9392052,9.18383217
6.94351999999981,-14.6252432,0.310704559,1.08862579,6.94351999999981,-2.83045864,-0.0276139509,0.0291758552,6.94351999999981,-19.3536053,11.9215145,9.45351601
6.95471799999996,-14.6955452,0.778519392,1.85144699,6.95471799999996,-2.82323265,-0.0357392281,0.0277695544,6.95471799999996,-19.0226154,11.949522,10.0800381
6.96654299999955,-14.8672857,0.0919516608,1.69871926,6.96654299999955,-2.80910063,-0.0235690977,0.0308175348,6.96654299999955,-18.9004097,11.9043789,11.226388
6.97907999999916,-14.7992125,0.0718782246,1.71078777,6.97907999999916,-2.80106425,-0.0325968042,0.0341194347,6.97907999999916,-19.1731968,11.4005642,11.0232754
6.99082199999884,-14.797781,0.172496423,1.4208926,6.99082199999884,-2.81290936,-0.0245213006,0.0356625654,6.99082199999884,-19.6319065,10.9060364,11.1799479
7.00326699999914,-15.031148,0.188203946,1.55362105,7.00326699999914,-2.80782199,-0.0242426414,0.0348111801,7.00326699999914,-19.5256004,10.121295,11.3540306
7.01446199999918,-14.9421272,0.296213001,2.11870003,7.01446199999918,-2.79665685,-0.0282305274,0.0419592299,7.01446199999918,-19.5564251,9.74389839,11.3540468
7.02691199999936,-14.7205496,0.450651675,1.94295561,7.02691199999936,-2.79949498,-0.0253334735,0.0390680805,7.02691199999936,-19.766119,9.54784966,11.9714689
7.03873499999918,-14.6956577,0.0432735272,1.25143075,7.03873499999918,-2.78980446,-0.0239611771,0.043056123,7.03873499999918,-19.9748764,9.71036911,12.2708883
7.05055799999991,-14.7152281,0.887111187,1.9486376,7.05055799999991,-2.7789104,-0.0220007654,0.0379590504,7.05055799999991,-19.2455406,8.96740532,12.8511496
7.06363599999986,-14.6088991,0.277105361,1.81997871,7.06363599999986,-2.77040553,-0.0232556965,0.0415918157,7.06363599999986,-19.4525356,8.53957844,12.9605913
7.07482599999912,-14.8745909,0.897970557,1.32569945,7.07482599999912,-2.76443386,-0.0252152216,0.0411019363,7.07482599999912,-19.6243801,8.2612505,13.0690928
7.08665499999915,-15.0843296,0.491664201,1.88100386,7.08665499999915,-2.77395296,-0.0208525192,0.0339822024,7.08665499999915,-19.7380657,7.51636028,12.8975859
7.09848299999885,-14.735302,0.739822268,1.91167796,7.09848299999885,-2.7691083,-0.0333431587,0.0365027338,7.09848299999885,-19.9997368,7.09841728,12.7118797
7.11092699999881,-14.674305,0.449459821,1.52973533,7.11092699999881,-2.7649076,-0.0210233573,0.0330019966,7.11092699999881,-20.0976315,6.29452658,13.0629501
7.12338,-14.8189964,0.750285566,1.86986554,7.12338,-2.74873114,-0.0190545376,0.0360616446,7.12338,-19.7941742,6.16222429,13.5590954
7.13456999999926,-14.6693258,0.392621368,0.859930933,7.13456999999926,-2.75447154,-0.021756487,0.0281242989,7.13456999999926,-19.3558064,6.06784582,13.6938419
7.14639899999929,-14.7450886,0.773947179,2.04619145,7.14639899999929,-2.76140642,-0.0273779016,0.0364467241,7.14639899999929,-19.0560913,6.40189743,13.9420671
7.15885999999955,-14.8819265,0.411558598,1.68570793,7.15885999999955,-2.75647306,-0.0239499751,0.0250203088,7.15885999999955,-18.6921406,5.42338085,14.0221596
7.17066599999907,-14.64221,0.841193259,1.91042066,7.17066599999907,-2.7486639,-0.0224208515,0.0262245666,7.17066599999907,-19.4017086,4.97408009,14.2786331
7.18312399999922,-14.6893206,0.468052924,1.54836595,7.18312399999922,-2.74290442,-0.0199591387,0.0266964659,7.18312399999922,-20.1567478,4.64029169,14.0441961
7.19494299999951,-14.7428303,0.518512607,1.58281136,7.19494299999951,-2.7276032,-0.0208525155,0.025104329,7.19494299999951,-20.1187286,3.75521588,13.9768915
7.20676699999876,-15.0088005,0.380256623,1.79903853,7.20676699999876,-2.71247983,-0.0183879994,0.023900073,7.20676699999876,-19.79459,3.59269452,14.0465269
7.21859099999983,-14.7076998,0.490158826,1.25645936,7.21859099999983,-2.6935761,-0.0239331704,0.0258324817,7.21859099999983,-19.2474155,2.75679374,14.5571613
7.23103899999933,-14.5465336,0.49665761,1.81922829,7.23103899999933,-2.69057083,-0.0177774709,0.0258450881,7.23103899999933,-19.4695015,2.57801867,14.1323986
7.24348799999916,-14.8035021,0.671384394,1.44326961,7.24348799999916,-2.70217109,-0.0185224283,0.0254193917,7.24348799999916,-19.3351517,1.93834364,14.441103
7.25468199999978,-14.6579361,0.290650994,1.52925742,7.25468199999978,-2.72443724,-0.0222590398,0.0249316245,7.25468199999978,-18.9901962,1.4605844,14.4411106
7.26652699999886,-14.775198,0.346131772,1.81588435,7.26652699999886,-2.74059772,-0.0196482707,0.0251883455,7.26652699999886,-18.4605827,0.516367853,14.267024
7.27895999999873,-14.383728,0.213947967,1.82567716,7.27895999999873,-2.71962452,-0.0175912306,0.0290111527,7.27895999999873,-19.605257,0.317167282,14.2205944
7.29083399999945,-14.4442358,0.414381415,0.999249399,7.29083399999945,-2.72357059,-0.0218327288,0.031489674,7.29083399999945,-19.369915,0.295737624,14.1509638
7.3032319999993,-14.5474911,0.357209831,1.3821224,7.3032319999993,-2.70704007,-0.0214224439,0.0264836177,7.3032319999993,-19.7619209,-0.377630413,14.2205925
7.31442999999945,-14.6351576,-0.265286028,1.76068199,7.31442999999945,-2.73111773,-0.0316005722,0.0330315605,7.31442999999945,-19.7460213,-1.03918278,14.1471024
7.32688399999915,-14.4333076,0.627047122,1.16643584,7.32688399999915,-2.7510457,-0.0257591549,0.0362478867,7.32688399999915,-19.9528561,-1.25959432,14.0001097
7.33870299999944,-14.208375,-0.0252270903,1.67759943,7.33870299999944,-2.74681544,-0.0227289144,0.0380430631,7.33870299999944,-19.1790066,-1.81690609,14.000102
7.35177199999907,-14.6409082,0.623085737,2.02516723,7.35177199999907,-2.73515964,-0.0232810322,0.0383484587,7.35177199999907,-19.2913189,-1.59583569,14.0000982
7.3635949999998,-14.5601625,-0.113048412,1.28738487,7.3635949999998,-2.71612096,-0.0251094196,0.0410957076,7.3635949999998,-19.626894,-2.39738107,13.617115
7.3748259999993,-14.6529036,0.60662663,1.4207108,7.3748259999993,-2.71101594,-0.029087821,0.0378501378,7.3748259999993,-19.7586098,-2.2646544,13.4978247
7.38662299999942,-14.6467276,0.560415864,1.69017076,7.38662299999942,-2.70486259,-0.0235130843,0.0384911634,7.38662299999942,-19.7619209,-2.51363325,13.1876926
7.39845499999956,-14.6301689,0.404846549,0.585903525,7.39845499999956,-2.69220352,-0.0305985864,0.0405075848,7.39845499999956,-20.1762753,-3.27966666,13.0484438
7.41089099999954,-15.2361469,0.255424887,2.26875424,7.41089099999954,-2.71704364,-0.0297500063,0.0392011106,7.41089099999954,-19.564127,-3.85137582,12.7542458
7.42334399999982,-14.5632219,0.53098309,2.04685783,7.42334399999982,-2.72180605,-0.0228857566,0.0396001972,7.42334399999982,-19.4533119,-4.3257432,12.6549931
7.43454199999996,-14.9413338,0.801032364,1.41381061,7.43454199999996,-2.73643899,-0.0236484427,0.040392451,7.43454199999996,-19.597456,-4.76433277,12.1380444
7.44699199999923,-14.6683455,-0.0813950896,2.06692147,7.44699199999923,-2.73588061,-0.0249609929,0.0337469578,7.44699199999923,-19.6944942,-5.0093751,12.0486202
7.45882599999914,-14.833663,0.578481913,1.24992228,7.45882599999914,-2.72959185,-0.0240732078,0.0432521626,7.45882599999914,-18.7553158,-5.19520569,12.6306257
7.47063799999978,-15.0391626,0.649742723,2.087677,7.47063799999978,-2.73917007,-0.0195922572,0.038323123,7.47063799999978,-19.1846275,-5.89156771,12.4565649
7.48308799999995,-14.9756079,0.42609939,1.85529566,7.48308799999995,-2.71049881,-0.0232582297,0.039360743,7.48308799999995,-19.4922237,-6.25548649,12.2140102
7.49491099999887,-15.0788097,0.963892162,2.17416763,7.49491099999887,-2.69206381,-0.0189201105,0.0378470197,7.49491099999887,-19.1472816,-7.04109144,11.365591
7.50673499999994,-14.8022985,-0.143911362,1.37538421,7.50673499999994,-2.68845129,-0.0214126352,0.0364187211,7.50673499999994,-19.8693466,-7.02927923,11.690589
7.51855399999931,-15.3051357,0.9372949,1.1501056,7.51855399999931,-2.68842316,-0.0167636573,0.0373709202,7.51855399999931,-19.1727924,-7.16836166,10.901454
7.53101099999913,-15.1987238,0.523593485,1.63793671,7.53101099999913,-2.69903159,-0.0195068326,0.0343056768,7.53101099999913,-19.3082886,-7.17097759,10.1191769
7.54345199999898,-14.8127966,0.272587657,1.70863807,7.54345199999898,-2.70451236,-0.0210499596,0.0353699028,7.54345199999898,-19.6378021,-7.56790257,9.98689556
7.55464999999913,-14.7969847,0.66277653,1.56057394,7.55464999999913,-2.69768381,-0.016671855,0.0329724401,7.55464999999913,-18.859026,-7.99898529,10.1535597
7.56652699999995,-15.4381237,1.06877577,1.78219318,7.56652699999995,-2.67301989,-0.0239611771,0.0214635562,7.56652699999995,-19.4185963,-8.51527596,9.82206917
7.57892299999912,-15.5562811,0.495465636,1.07901478,7.57892299999912,-2.66157103,-0.016633423,0.023078097,7.57892299999912,-19.7589874,-8.86935329,9.20406914
7.59075099999882,-15.6285686,0.483133048,1.23458505,7.59075099999882,-2.68772316,-0.0236811172,0.0268967096,7.59075099999882,-19.0265808,-9.09559441,8.99810505
7.60319999999865,-15.5908461,0.961721599,1.40099204,7.60319999999865,-2.69059753,-0.0233380441,0.0211092811,7.60319999999865,-19.0206642,-9.33241749,8.48746109
7.61439399999927,-15.4713154,0.923131824,0.632752836,7.61439399999927,-2.70102429,-0.0260725189,0.0208225325,7.61439399999927,-19.3540611,-9.32273865,8.48742104
7.62684799999897,-15.2020607,0.570552886,1.69311249,7.62684799999897,-2.70113349,-0.0269032028,0.0165331103,7.62684799999897,-19.0873795,-9.6193018,8.77407551
7.63866599999983,-15.3563223,0.521021664,0.831296265,7.63866599999983,-2.70248222,-0.0351075381,0.0115494588,7.63866599999983,-20.0273685,-9.64115047,7.59385061
7.6504989999994,-15.4200573,0.228702024,1.5149262,7.6504989999994,-2.72891951,-0.0327270329,0.00723654777,7.6504989999994,-19.787365,-9.91970634,6.75827026
7.66357299999891,-15.5140324,0.666219532,0.682571232,7.66357299999891,-2.75434065,-0.0343287066,0.0106532685,7.66357299999891,-19.1148987,-10.3027763,6.36645222
7.67482599999948,-15.2297649,0.319785327,1.59905648,7.67482599999948,-2.75790095,-0.0366556421,0.0108897649,7.67482599999948,-19.6077938,-10.3028603,5.91491127
7.68659099999877,-15.5989609,0.620385289,1.29115605,7.68659099999877,-2.73037601,-0.0449096113,0.00676044635,7.68659099999877,-19.7424679,-10.9296398,5.60933352
7.69840999999997,-14.8474617,-0.0450495966,1.99364316,7.69840999999997,-2.71822119,-0.0351915583,0.00897291303,7.69840999999997,-19.6968746,-10.7327223,5.28420067
7.71086799999921,-15.2154093,-0.125493944,1.08140326,7.71086799999921,-2.71361136,-0.0426537395,0.0105734523,7.71086799999921,-19.6076164,-10.5787706,4.9592967
7.72331199999917,-15.3550949,0.459709913,1.4602282,7.72331199999917,-2.69783473,-0.0410574004,0.0130477771,7.72331199999917,-19.5718498,-11.328578,4.95934677
7.73450599999978,-14.9201431,-0.0584319681,0.765185177,7.73450599999978,-2.6855042,-0.0311867092,0.0178959128,7.73450599999978,-19.2357407,-11.0381021,4.40811157
7.74695999999949,-15.3601007,-0.0618485957,1.72010326,7.74695999999949,-2.70656109,-0.0468574241,0.0162138455,7.74695999999949,-20.1383152,-10.7882748,3.812675
7.75882999999976,-15.2271023,0.0784021467,2.52390265,7.75882999999976,-2.69433188,-0.0357796773,0.0239280816,7.75882999999976,-19.4732418,-11.1735983,3.27653766
7.77060699999947,-14.8447018,0.2236837,0.658817351,7.77060699999947,-2.68663073,-0.036451824,0.0254684035,7.77060699999947,-19.3372631,-11.4173288,2.97482181
7.7830759999988,-15.3174324,0.097145699,2.52385211,7.7830759999988,-2.70105386,-0.0322243273,0.0289313365,7.7830759999988,-19.3594456,-11.4716978,2.25828242
7.79487499999868,-15.4178019,0.513243198,1.76383889,7.79487499999868,-2.69365978,-0.031382747,0.0232839435,7.79487499999868,-19.2314034,-11.8119831,2.05800676
7.80670299999929,-15.0702782,-0.0816837102,2.00973439,7.80670299999929,-2.69024324,-0.0306545924,0.0295852758,7.80670299999929,-19.9501324,-11.846962,1.02502215
7.81852199999867,-15.2258492,0.65626657,0.576349437,7.81852199999867,-2.70318246,-0.0190881472,0.0303694457,7.81852199999867,-19.3690529,-11.9859562,1.21089423
7.83107599999948,-15.0275707,-0.284965008,1.84335244,7.83107599999948,-2.71714997,-0.0216352846,0.0273083933,7.83107599999948,-19.3233223,-12.0673065,0.990332365
7.84341999999924,-15.065712,0.177477226,1.56436944,7.84341999999924,-2.67277193,-0.0192141738,0.0314854756,7.84341999999924,-19.8705826,-11.6925755,0.152276948
7.85461799999939,-15.5025682,0.168021753,1.7978375,7.85461799999939,-2.63681579,-0.0248013567,0.030696176,7.85461799999939,-19.7930927,-11.626461,-0.112364955
7.86645099999896,-15.1964893,0.707704723,1.73945045,7.86645099999896,-2.65341544,-0.0241292138,0.0370628573,7.86645099999896,-19.6042786,-11.6263056,-0.251534998
7.87889099999938,-15.0247116,-0.686145425,0.731002033,7.87889099999938,-2.69522738,-0.0244288798,0.0368598141,7.87889099999938,-19.832056,-11.5492687,-1.22592878
7.89071499999955,-15.0670166,0.493922591,1.26651597,7.89071499999955,-2.69962525,-0.0275459383,0.0402555317,7.89071499999955,-19.3569603,-11.2897148,-1.88796139
7.90316799999982,-15.0018263,0.440401763,1.59565926,7.90316799999982,-2.72398806,-0.0263710897,0.0371790826,7.90316799999982,-19.9379768,-11.1850128,-2.25105762
7.9149869999992,-14.8805838,0.212894231,1.46816075,7.9149869999992,-2.74989581,-0.0309066493,0.0363907143,7.9149869999992,-19.7836151,-11.1849766,-2.375211
7.92682599999989,-15.3209457,0.159950495,1.20843685,7.92682599999989,-2.74801946,-0.0361437574,0.042355977,7.92682599999989,-19.9809093,-11.1852894,-3.41994071
7.93864199999916,-14.8110781,0.330323845,1.47545195,7.93864199999916,-2.77532554,-0.0214406457,0.0378190167,7.93864199999916,-19.5389576,-11.266346,-3.5010159
7.95233799999914,-15.0836105,0.468876302,0.982061088,7.95233799999914,-2.77027655,-0.034234263,0.0382021889,7.95233799999914,-18.527977,-11.2754059,-4.03125954
7.96353399999953,-14.9619932,0.131471276,1.54624259,7.96353399999953,-2.75323057,-0.0339359567,0.0371997729,7.96353399999953,-19.7051907,-11.0013704,-3.93436909
7.97482599999876,-15.2085762,0.0257929023,1.28031671,7.97482599999876,-2.77333236,-0.0323396176,0.0403333269,7.97482599999876,-18.9915009,-10.5478058,-4.65696859
